Elevation (deg) - Measured	
0	-27.5
0.005	-27.5
0.01	-27.5
0.015	-27.5
0.02	-27.5
0.025	-27.5
0.03	-27.5
0.035	-27.5
0.04	-27.5
0.045	-27.5
0.05	-27.5
0.055	-27.5
0.06	-27.5
0.065	-27.4121
0.07	-27.4121
0.075	-27.4121
0.08	-27.4121
0.085	-27.4121
0.09	-27.3242
0.095	-27.3242
0.1	-27.3242
0.105	-27.3242
0.11	-27.3242
0.115	-27.2363
0.12	-27.2363
0.125	-27.2363
0.13	-27.2363
0.135	-27.1484
0.14	-27.1484
0.145	-27.0605
0.15	-27.0605
0.155	-26.9727
0.16	-26.9727
0.165	-26.9727
0.17	-26.8848
0.175	-26.8848
0.18	-26.7969
0.185	-26.709
0.19	-26.6211
0.195	-26.6211
0.2	-26.5332
0.205	-26.4453
0.21	-26.4453
0.215	-26.3574
0.22	-26.2695
0.225	-26.1816
0.23	-26.0937
0.235	-26.0059
0.24	-25.918
0.245	-25.7422
0.25	-25.6543
0.255	-25.5664
0.26	-25.3906
0.265	-25.3027
0.27	-25.2148
0.275	-25.0391
0.28	-24.9512
0.285	-24.9512
0.29	-24.7754
0.295	-24.5996
0.3	-24.5117
0.305	-24.3359
0.31	-24.248
0.315	-24.1602
0.32	-23.9844
0.325	-23.8086
0.33	-23.7207
0.335	-23.5449
0.34	-23.457
0.345	-23.2812
0.35	-23.1055
0.355	-23.0176
0.36	-22.8418
0.365	-22.7539
0.37	-22.666
0.375	-22.4902
0.38	-22.0508
0.385	-21.9629
0.39	-21.7871
0.395	-21.3477
0.4	-21.1719
0.405	-20.8203
0.41	-20.7324
0.415	-20.5566
0.42	-20.3809
0.425	-20.2051
0.43	-19.9414
0.435	-19.8535
0.44	-19.7656
0.445	-19.502
0.45	-19.4141
0.455	-19.1504
0.46	-18.9746
0.465	-18.8867
0.47	-18.7988
0.475	-18.623
0.48	-18.5352
0.485	-18.2715
0.49	-18.1836
0.495	-18.0957
0.5	-17.9199
0.505	-17.832
0.51	-17.7441
0.515	-17.4805
0.52	-17.3926
0.525	-17.2168
0.53	-17.041
0.535	-16.8652
0.54	-16.7773
0.545	-16.6895
0.55	-16.5137
0.555	-16.4258
0.56	-16.25
0.565	-16.0742
0.57	-15.9863
0.575	-15.7227
0.58	-15.6348
0.585	-15.5469
0.59	-15.459
0.595	-15.2832
0.6	-15.1953
0.605	-14.9316
0.61	-14.7559
0.615	-14.4922
0.62	-14.3164
0.625	-14.0527
0.63	-13.9648
0.635	-13.7012
0.64	-13.6133
0.645	-13.5254
0.65	-13.4375
0.655	-13.3496
0.66	-13.2617
0.665	-12.998
0.67	-12.9102
0.675	-12.8223
0.68	-12.7344
0.685	-12.6465
0.69	-12.5586
0.695	-12.3828
0.7	-12.2949
0.705	-12.0313
0.71	-11.9434
0.715	-11.8555
0.72	-11.7676
0.725	-11.6797
0.73	-11.5918
0.735	-11.416
0.74	-11.3281
0.745	-11.2402
0.75	-11.1523
0.755	-11.0645
0.76	-10.9766
0.765	-10.8008
0.77	-10.7129
0.775	-10.7129
0.78	-10.5371
0.785	-10.4492
0.79	-10.4492
0.795	-10.2734
0.8	-10.1855
0.805	-10.0098
0.81	-9.92188
0.815	-9.83398
0.82	-9.74609
0.825	-9.6582
0.83	-9.57031
0.835	-9.39453
0.84	-9.39453
0.845	-9.30664
0.85	-9.04297
0.855	-9.04297
0.86	-8.95508
0.865	-8.7793
0.87	-8.69141
0.875	-8.69141
0.88	-8.42773
0.885	-8.42773
0.89	-8.25195
0.895	-8.25195
0.9	-8.16406
0.905	-8.07617
0.91	-7.98828
0.915	-7.98828
0.92	-7.90039
0.925	-7.8125
0.93	-7.8125
0.935	-7.63672
0.94	-7.63672
0.945	-7.54883
0.95	-7.46094
0.955	-7.37305
0.96	-7.28516
0.965	-7.28516
0.97	-7.19727
0.975	-7.10938
0.98	-7.10938
0.985	-7.02148
0.99	-6.93359
0.995	-6.93359
1	-6.8457
1.005	-6.8457
1.01	-6.75781
1.015	-6.75781
1.02	-6.66992
1.025	-6.66992
1.03	-6.58203
1.035	-6.49414
1.04	-6.49414
1.045	-6.40625
1.05	-6.40625
1.055	-6.31836
1.06	-6.31836
1.065	-6.23047
1.07	-6.23047
1.075	-6.23047
1.08	-6.23047
1.085	-6.14258
1.09	-6.14258
1.095	-6.05469
1.1	-6.05469
1.105	-6.05469
1.11	-5.9668
1.115	-5.9668
1.12	-5.87891
1.125	-5.87891
1.13	-5.87891
1.135	-5.87891
1.14	-5.79102
1.145	-5.79102
1.15	-5.79102
1.155	-5.79102
1.16	-5.79102
1.165	-5.70313
1.17	-5.70313
1.175	-5.70313
1.18	-5.70313
1.185	-5.70313
1.19	-5.70313
1.195	-5.70313
1.2	-5.61523
1.205	-5.61523
1.21	-5.61523
1.215	-5.61523
1.22	-5.61523
1.225	-5.61523
1.23	-5.61523
1.235	-5.61523
1.24	-5.61523
1.245	-5.61523
1.25	-5.61523
1.255	-5.61523
1.26	-5.61523
1.265	-5.61523
1.27	-5.61523
1.275	-5.61523
1.28	-5.61523
1.285	-5.61523
1.29	-5.61523
1.295	-5.61523
1.3	-5.61523
1.305	-5.61523
1.31	-5.61523
1.315	-5.61523
1.32	-5.61523
1.325	-5.61523
1.33	-5.61523
1.335	-5.70313
1.34	-5.70313
1.345	-5.70313
1.35	-5.70313
1.355	-5.79102
1.36	-5.79102
1.365	-5.79102
1.37	-5.87891
1.375	-5.87891
1.38	-5.87891
1.385	-5.87891
1.39	-5.87891
1.395	-5.9668
1.4	-5.9668
1.405	-5.9668
1.41	-6.05469
1.415	-6.05469
1.42	-6.05469
1.425	-6.14258
1.43	-6.14258
1.435	-6.14258
1.44	-6.23047
1.445	-6.23047
1.45	-6.23047
1.455	-6.31836
1.46	-6.31836
1.465	-6.31836
1.47	-6.40625
1.475	-6.40625
1.48	-6.49414
1.485	-6.49414
1.49	-6.49414
1.495	-6.49414
1.5	-6.58203
1.505	-6.58203
1.51	-6.66992
1.515	-6.75781
1.52	-6.75781
1.525	-6.8457
1.53	-6.93359
1.535	-6.93359
1.54	-7.02148
1.545	-7.02148
1.55	-7.02148
1.555	-7.10938
1.56	-7.10938
1.565	-7.19727
1.57	-7.19727
1.575	-7.19727
1.58	-7.28516
1.585	-7.28516
1.59	-7.37305
1.595	-7.37305
1.6	-7.37305
1.605	-7.46094
1.61	-7.46094
1.615	-7.54883
1.62	-7.54883
1.625	-7.54883
1.63	-7.63672
1.635	-7.63672
1.64	-7.63672
1.645	-7.63672
1.65	-7.63672
1.655	-7.72461
1.66	-7.72461
1.665	-7.8125
1.67	-7.8125
1.675	-7.8125
1.68	-7.8125
1.685	-7.8125
1.69	-7.90039
1.695	-7.90039
1.7	-7.90039
1.705	-7.90039
1.71	-7.90039
1.715	-7.90039
1.72	-7.98828
1.725	-7.98828
1.73	-7.98828
1.735	-7.98828
1.74	-7.98828
1.745	-7.98828
1.75	-7.98828
1.755	-7.98828
1.76	-7.98828
1.765	-7.98828
1.77	-8.07617
1.775	-8.07617
1.78	-8.07617
1.785	-8.07617
1.79	-8.07617
1.795	-8.07617
1.8	-8.07617
1.805	-8.07617
1.81	-8.07617
1.815	-8.07617
1.82	-8.07617
1.825	-8.16406
1.83	-8.16406
1.835	-8.16406
1.84	-8.16406
1.845	-8.16406
1.85	-8.16406
1.855	-8.16406
1.86	-8.16406
1.865	-8.16406
1.87	-8.16406
1.875	-8.25195
1.88	-8.25195
1.885	-8.25195
1.89	-8.25195
1.895	-8.25195
1.9	-8.25195
1.905	-8.25195
1.91	-8.25195
1.915	-8.25195
1.92	-8.25195
1.925	-8.25195
1.93	-8.25195
1.935	-8.25195
1.94	-8.25195
1.945	-8.25195
1.95	-8.25195
1.955	-8.33984
1.96	-8.33984
1.965	-8.33984
1.97	-8.33984
1.975	-8.33984
1.98	-8.33984
1.985	-8.33984
1.99	-8.33984
1.995	-8.33984
2	-8.33984
2.005	-8.33984
2.01	-8.33984
2.015	-8.33984
2.02	-8.33984
2.025	-8.42773
2.03	-8.42773
2.035	-8.42773
2.04	-8.42773
2.045	-8.42773
2.05	-8.42773
2.055	-8.42773
2.06	-8.42773
2.065	-8.42773
2.07	-8.42773
2.075	-8.42773
2.08	-8.42773
2.085	-8.42773
2.09	-8.51563
2.095	-8.51563
2.1	-8.51563
2.105	-8.51563
2.11	-8.51563
2.115	-8.51563
2.12	-8.51563
2.125	-8.51563
2.13	-8.51563
2.135	-8.51563
2.14	-8.60352
2.145	-8.60352
2.15	-8.60352
2.155	-8.60352
2.16	-8.60352
2.165	-8.60352
2.17	-8.60352
2.175	-8.60352
2.18	-8.60352
2.185	-8.60352
2.19	-8.60352
2.195	-8.60352
2.2	-8.69141
2.205	-8.69141
2.21	-8.69141
2.215	-8.69141
2.22	-8.69141
2.225	-8.69141
2.23	-8.69141
2.235	-8.69141
2.24	-8.69141
2.245	-8.69141
2.25	-8.69141
2.255	-8.69141
2.26	-8.69141
2.265	-8.7793
2.27	-8.7793
2.275	-8.7793
2.28	-8.7793
2.285	-8.7793
2.29	-8.7793
2.295	-8.7793
2.3	-8.7793
2.305	-8.7793
2.31	-8.7793
2.315	-8.7793
2.32	-8.7793
2.325	-8.86719
2.33	-8.86719
2.335	-8.86719
2.34	-8.86719
2.345	-8.86719
2.35	-8.86719
2.355	-8.86719
2.36	-8.86719
2.365	-8.86719
2.37	-8.86719
2.375	-8.86719
2.38	-8.95508
2.385	-8.95508
2.39	-8.95508
2.395	-8.95508
2.4	-8.95508
2.405	-8.95508
2.41	-8.95508
2.415	-8.95508
2.42	-8.95508
2.425	-8.95508
2.43	-8.95508
2.435	-8.95508
2.44	-8.95508
2.445	-8.95508
2.45	-8.95508
2.455	-9.04297
2.46	-9.04297
2.465	-9.04297
2.47	-9.04297
2.475	-9.04297
2.48	-9.04297
2.485	-9.04297
2.49	-9.04297
2.495	-9.04297
2.5	-9.04297
2.505	-9.04297
2.51	-9.04297
2.515	-9.04297
2.52	-9.04297
2.525	-9.04297
2.53	-9.04297
2.535	-9.04297
2.54	-9.04297
2.545	-9.13086
2.55	-9.13086
2.555	-9.13086
2.56	-9.13086
2.565	-9.13086
2.57	-9.13086
2.575	-9.13086
2.58	-9.13086
2.585	-9.13086
2.59	-9.13086
2.595	-9.13086
2.6	-9.13086
2.605	-9.13086
2.61	-9.13086
2.615	-9.13086
2.62	-9.13086
2.625	-9.13086
2.63	-9.13086
2.635	-9.13086
2.64	-9.13086
2.645	-9.21875
2.65	-9.21875
2.655	-9.21875
2.66	-9.21875
2.665	-9.21875
2.67	-9.21875
2.675	-9.21875
2.68	-9.21875
2.685	-9.21875
2.69	-9.21875
2.695	-9.21875
2.7	-9.21875
2.705	-9.21875
2.71	-9.21875
2.715	-9.21875
2.72	-9.21875
2.725	-9.21875
2.73	-9.21875
2.735	-9.21875
2.74	-9.21875
2.745	-9.21875
2.75	-9.21875
2.755	-9.30664
2.76	-9.30664
2.765	-9.30664
2.77	-9.30664
2.775	-9.30664
2.78	-9.30664
2.785	-9.30664
2.79	-9.30664
2.795	-9.30664
2.8	-9.30664
2.805	-9.30664
2.81	-9.30664
2.815	-9.30664
2.82	-9.30664
2.825	-9.30664
2.83	-9.30664
2.835	-9.30664
2.84	-9.30664
2.845	-9.30664
2.85	-9.30664
2.855	-9.30664
2.86	-9.30664
2.865	-9.30664
2.87	-9.30664
2.875	-9.30664
2.88	-9.30664
2.885	-9.30664
2.89	-9.30664
2.895	-9.30664
2.9	-9.30664
2.905	-9.30664
2.91	-9.30664
2.915	-9.30664
2.92	-9.30664
2.925	-9.30664
2.93	-9.30664
2.935	-9.30664
2.94	-9.30664
2.945	-9.30664
2.95	-9.30664
2.955	-9.30664
2.96	-9.30664
2.965	-9.30664
2.97	-9.30664
2.975	-9.30664
2.98	-9.30664
2.985	-9.30664
2.99	-9.30664
2.995	-9.30664
3	-9.30664
3.005	-9.30664
3.01	-9.30664
3.015	-9.30664
3.02	-9.39453
3.025	-9.39453
3.03	-9.39453
3.035	-9.39453
3.04	-9.39453
3.045	-9.39453
3.05	-9.39453
3.055	-9.39453
3.06	-9.39453
3.065	-9.39453
3.07	-9.39453
3.075	-9.39453
3.08	-9.39453
3.085	-9.39453
3.09	-9.39453
3.095	-9.39453
3.1	-9.39453
3.105	-9.39453
3.11	-9.39453
3.115	-9.39453
3.12	-9.39453
3.125	-9.39453
3.13	-9.39453
3.135	-9.39453
3.14	-9.39453
3.145	-9.39453
3.15	-9.39453
3.155	-9.39453
3.16	-9.39453
3.165	-9.39453
3.17	-9.39453
3.175	-9.39453
3.18	-9.39453
3.185	-9.39453
3.19	-9.39453
3.195	-9.39453
3.2	-9.39453
3.205	-9.39453
3.21	-9.39453
3.215	-9.39453
3.22	-9.39453
3.225	-9.39453
3.23	-9.39453
3.235	-9.39453
3.24	-9.39453
3.245	-9.39453
3.25	-9.39453
3.255	-9.39453
3.26	-9.39453
3.265	-9.39453
3.27	-9.39453
3.275	-9.39453
3.28	-9.39453
3.285	-9.39453
3.29	-9.39453
3.295	-9.39453
3.3	-9.39453
3.305	-9.39453
3.31	-9.39453
3.315	-9.39453
3.32	-9.39453
3.325	-9.39453
3.33	-9.39453
3.335	-9.39453
3.34	-9.39453
3.345	-9.39453
3.35	-9.39453
3.355	-9.39453
3.36	-9.39453
3.365	-9.39453
3.37	-9.39453
3.375	-9.39453
3.38	-9.39453
3.385	-9.39453
3.39	-9.39453
3.395	-9.39453
3.4	-9.39453
3.405	-9.39453
3.41	-9.39453
3.415	-9.39453
3.42	-9.39453
3.425	-9.39453
3.43	-9.39453
3.435	-9.39453
3.44	-9.48242
3.445	-9.48242
3.45	-9.48242
3.455	-9.48242
3.46	-9.48242
3.465	-9.48242
3.47	-9.48242
3.475	-9.48242
3.48	-9.48242
3.485	-9.48242
3.49	-9.48242
3.495	-9.48242
3.5	-9.48242
3.505	-9.48242
3.51	-9.48242
3.515	-9.48242
3.52	-9.48242
3.525	-9.48242
3.53	-9.48242
3.535	-9.48242
3.54	-9.48242
3.545	-9.48242
3.55	-9.48242
3.555	-9.48242
3.56	-9.48242
3.565	-9.48242
3.57	-9.48242
3.575	-9.48242
3.58	-9.48242
3.585	-9.48242
3.59	-9.48242
3.595	-9.48242
3.6	-9.48242
3.605	-9.48242
3.61	-9.48242
3.615	-9.48242
3.62	-9.48242
3.625	-9.48242
3.63	-9.48242
3.635	-9.48242
3.64	-9.48242
3.645	-9.48242
3.65	-9.48242
3.655	-9.48242
3.66	-9.48242
3.665	-9.48242
3.67	-9.48242
3.675	-9.48242
3.68	-9.48242
3.685	-9.48242
3.69	-9.48242
3.695	-9.48242
3.7	-9.48242
3.705	-9.48242
3.71	-9.48242
3.715	-9.48242
3.72	-9.48242
3.725	-9.48242
3.73	-9.48242
3.735	-9.48242
3.74	-9.48242
3.745	-9.48242
3.75	-9.48242
3.755	-9.48242
3.76	-9.48242
3.765	-9.48242
3.77	-9.48242
3.775	-9.57031
3.78	-9.57031
3.785	-9.57031
3.79	-9.57031
3.795	-9.57031
3.8	-9.57031
3.805	-9.57031
3.81	-9.57031
3.815	-9.57031
3.82	-9.57031
3.825	-9.57031
3.83	-9.57031
3.835	-9.57031
3.84	-9.57031
3.845	-9.57031
3.85	-9.57031
3.855	-9.57031
3.86	-9.57031
3.865	-9.57031
3.87	-9.57031
3.875	-9.57031
3.88	-9.57031
3.885	-9.57031
3.89	-9.57031
3.895	-9.57031
3.9	-9.57031
3.905	-9.57031
3.91	-9.57031
3.915	-9.57031
3.92	-9.57031
3.925	-9.57031
3.93	-9.57031
3.935	-9.57031
3.94	-9.57031
3.945	-9.57031
3.95	-9.57031
3.955	-9.57031
3.96	-9.57031
3.965	-9.57031
3.97	-9.57031
3.975	-9.57031
3.98	-9.57031
3.985	-9.57031
3.99	-9.57031
3.995	-9.57031
4	-9.57031
4.005	-9.57031
4.01	-9.57031
4.015	-9.57031
4.02	-9.57031
4.025	-9.57031
4.03	-9.57031
4.035	-9.57031
4.04	-9.57031
4.045	-9.57031
4.05	-9.57031
4.055	-9.57031
4.06	-9.57031
4.065	-9.57031
4.07	-9.57031
4.075	-9.57031
4.08	-9.57031
4.085	-9.57031
4.09	-9.57031
4.095	-9.57031
4.1	-9.57031
4.105	-9.57031
4.11	-9.57031
4.115	-9.57031
4.12	-9.57031
4.125	-9.57031
4.13	-9.57031
4.135	-9.57031
4.14	-9.57031
4.145	-9.57031
4.15	-9.57031
4.155	-9.57031
4.16	-9.57031
4.165	-9.57031
4.17	-9.57031
4.175	-9.57031
4.18	-9.57031
4.185	-9.57031
4.19	-9.57031
4.195	-9.57031
4.2	-9.57031
4.205	-9.57031
4.21	-9.57031
4.215	-9.57031
4.22	-9.57031
4.225	-9.57031
4.23	-9.57031
4.235	-9.57031
4.24	-9.57031
4.245	-9.57031
4.25	-9.57031
4.255	-9.57031
4.26	-9.57031
4.265	-9.57031
4.27	-9.57031
4.275	-9.57031
4.28	-9.57031
4.285	-9.57031
4.29	-9.57031
4.295	-9.57031
4.3	-9.57031
4.305	-9.57031
4.31	-9.57031
4.315	-9.57031
4.32	-9.57031
4.325	-9.57031
4.33	-9.57031
4.335	-9.57031
4.34	-9.57031
4.345	-9.57031
4.35	-9.57031
4.355	-9.57031
4.36	-9.57031
4.365	-9.57031
4.37	-9.57031
4.375	-9.57031
4.38	-9.57031
4.385	-9.57031
4.39	-9.57031
4.395	-9.57031
4.4	-9.57031
4.405	-9.57031
4.41	-9.57031
4.415	-9.57031
4.42	-9.57031
4.425	-9.57031
4.43	-9.57031
4.435	-9.57031
4.44	-9.57031
4.445	-9.57031
4.45	-9.57031
4.455	-9.57031
4.46	-9.57031
4.465	-9.57031
4.47	-9.57031
4.475	-9.57031
4.48	-9.57031
4.485	-9.57031
4.49	-9.57031
4.495	-9.57031
4.5	-9.57031
4.505	-9.57031
4.51	-9.57031
4.515	-9.57031
4.52	-9.57031
4.525	-9.57031
4.53	-9.57031
4.535	-9.57031
4.54	-9.57031
4.545	-9.57031
4.55	-9.57031
4.555	-9.57031
4.56	-9.57031
4.565	-9.57031
4.57	-9.57031
4.575	-9.57031
4.58	-9.57031
4.585	-9.57031
4.59	-9.57031
4.595	-9.57031
4.6	-9.57031
4.605	-9.57031
4.61	-9.57031
4.615	-9.57031
4.62	-9.57031
4.625	-9.57031
4.63	-9.57031
4.635	-9.57031
4.64	-9.57031
4.645	-9.57031
4.65	-9.57031
4.655	-9.57031
4.66	-9.57031
4.665	-9.57031
4.67	-9.57031
4.675	-9.57031
4.68	-9.57031
4.685	-9.57031
4.69	-9.57031
4.695	-9.57031
4.7	-9.57031
4.705	-9.57031
4.71	-9.57031
4.715	-9.57031
4.72	-9.57031
4.725	-9.57031
4.73	-9.57031
4.735	-9.57031
4.74	-9.57031
4.745	-9.57031
4.75	-9.57031
4.755	-9.57031
4.76	-9.57031
4.765	-9.57031
4.77	-9.57031
4.775	-9.57031
4.78	-9.57031
4.785	-9.57031
4.79	-9.57031
4.795	-9.57031
4.8	-9.57031
4.805	-9.57031
4.81	-9.57031
4.815	-9.57031
4.82	-9.57031
4.825	-9.57031
4.83	-9.57031
4.835	-9.57031
4.84	-9.57031
4.845	-9.57031
4.85	-9.57031
4.855	-9.57031
4.86	-9.57031
4.865	-9.57031
4.87	-9.57031
4.875	-9.57031
4.88	-9.57031
4.885	-9.57031
4.89	-9.57031
4.895	-9.57031
4.9	-9.57031
4.905	-9.57031
4.91	-9.57031
4.915	-9.57031
4.92	-9.57031
4.925	-9.57031
4.93	-9.57031
4.935	-9.57031
4.94	-9.57031
4.945	-9.57031
4.95	-9.57031
4.955	-9.57031
4.96	-9.57031
4.965	-9.57031
4.97	-9.57031
4.975	-9.57031
4.98	-9.57031
4.985	-9.57031
4.99	-9.57031
4.995	-9.57031
5	-9.57031
5.005	-9.57031
5.01	-9.57031
5.015	-9.57031
5.02	-9.57031
5.025	-9.57031
5.03	-9.57031
5.035	-9.57031
5.04	-9.57031
5.045	-9.57031
5.05	-9.57031
5.055	-9.57031
5.06	-9.57031
5.065	-9.57031
5.07	-9.57031
5.075	-9.57031
5.08	-9.57031
5.085	-9.57031
5.09	-9.48242
5.095	-9.48242
5.1	-9.48242
5.105	-9.48242
5.11	-9.48242
5.115	-9.48242
5.12	-9.48242
5.125	-9.48242
5.13	-9.39453
5.135	-9.39453
5.14	-9.39453
5.145	-9.39453
5.15	-9.30664
5.155	-9.30664
5.16	-9.30664
5.165	-9.30664
5.17	-9.21875
5.175	-9.21875
5.18	-9.13086
5.185	-9.13086
5.19	-9.04297
5.195	-9.04297
5.2	-8.95508
5.205	-8.86719
5.21	-8.86719
5.215	-8.7793
5.22	-8.7793
5.225	-8.69141
5.23	-8.60352
5.235	-8.51563
5.24	-8.51563
5.245	-8.33984
5.25	-8.25195
5.255	-8.16406
5.26	-8.07617
5.265	-7.98828
5.27	-7.90039
5.275	-7.8125
5.28	-7.72461
5.285	-7.63672
5.29	-7.46094
5.295	-7.37305
5.3	-7.19727
5.305	-7.10938
5.31	-7.02148
5.315	-6.8457
5.32	-6.75781
5.325	-6.66992
5.33	-6.49414
5.335	-6.40625
5.34	-6.31836
5.345	-5.9668
5.35	-5.87891
5.355	-5.61523
5.36	-5.52734
5.365	-5.43945
5.37	-5.08789
5.375	-5
5.38	-4.91211
5.385	-4.64844
5.39	-4.56055
5.395	-4.47266
5.4	-4.29688
5.405	-4.20898
5.41	-4.12109
5.415	-3.85742
5.42	-3.68164
5.425	-3.59375
5.43	-3.33008
5.435	-3.24219
5.44	-3.1543
5.445	-2.89063
5.45	-2.80273
5.455	-2.62695
5.46	-2.45117
5.465	-2.27539
5.47	-2.1875
5.475	-1.83594
5.48	-1.66016
5.485	-1.57227
5.49	-1.2207
5.495	-1.13281
5.5	-0.605469
5.505	-0.517578
5.51	-0.166016
5.515	-0.078125
5.52	0.00976562
5.525	0.273438
5.53	0.361328
5.535	0.625
5.54	0.712891
5.545	0.800781
5.55	1.06445
5.555	1.15234
5.56	1.24023
5.565	1.41602
5.57	1.50391
5.575	1.5918
5.58	1.76758
5.585	1.85547
5.59	1.94336
5.595	2.29492
5.6	2.38281
5.605	2.4707
5.61	2.55859
5.615	2.64648
5.62	2.73437
5.625	2.91016
5.63	2.99805
5.635	2.99805
5.64	3.17383
5.645	3.26172
5.65	3.34961
5.655	3.52539
5.66	3.61328
5.665	3.70117
5.67	3.96484
5.675	3.96484
5.68	4.22852
5.685	4.31641
5.69	4.4043
5.695	4.49219
5.7	4.58008
5.705	4.75586
5.71	4.84375
5.715	4.93164
5.72	5.10742
5.725	5.10742
5.73	5.19531
5.735	5.2832
5.74	5.37109
5.745	5.37109
5.75	5.45898
5.755	5.54688
5.76	5.63477
5.765	5.72266
5.77	5.81055
5.775	5.81055
5.78	5.98633
5.785	5.98633
5.79	6.07422
5.795	6.07422
5.8	6.16211
5.805	6.16211
5.81	6.33789
5.815	6.33789
5.82	6.42578
5.825	6.42578
5.83	6.51367
5.835	6.51367
5.84	6.60156
5.845	6.60156
5.85	6.68945
5.855	6.68945
5.86	6.77734
5.865	6.77734
5.87	6.77734
5.875	6.86523
5.88	6.86523
5.885	6.95312
5.89	6.95312
5.895	6.95312
5.9	7.04102
5.905	7.04102
5.91	7.12891
5.915	7.12891
5.92	7.12891
5.925	7.2168
5.93	7.2168
5.935	7.2168
5.94	7.2168
5.945	7.30469
5.95	7.30469
5.955	7.30469
5.96	7.39258
5.965	7.39258
5.97	7.39258
5.975	7.48047
5.98	7.48047
5.985	7.48047
5.99	7.48047
5.995	7.56836
6	7.56836
6.005	7.56836
6.01	7.56836
6.015	7.56836
6.02	7.65625
6.025	7.65625
6.03	7.65625
6.035	7.65625
6.04	7.74414
6.045	7.74414
6.05	7.74414
6.055	7.74414
6.06	7.83203
6.065	7.83203
6.07	7.83203
6.075	7.83203
6.08	7.83203
6.085	7.91992
6.09	7.91992
6.095	7.91992
6.1	7.91992
6.105	8.00781
6.11	8.00781
6.115	8.00781
6.12	8.0957
6.125	8.0957
6.13	8.0957
6.135	8.0957
6.14	8.0957
6.145	8.18359
6.15	8.18359
6.155	8.18359
6.16	8.18359
6.165	8.18359
6.17	8.27148
6.175	8.27148
6.18	8.27148
6.185	8.27148
6.19	8.27148
6.195	8.27148
6.2	8.35937
6.205	8.35937
6.21	8.35937
6.215	8.35937
6.22	8.44727
6.225	8.44727
6.23	8.44727
6.235	8.53516
6.24	8.53516
6.245	8.53516
6.25	8.53516
6.255	8.53516
6.26	8.53516
6.265	8.62305
6.27	8.62305
6.275	8.62305
6.28	8.62305
6.285	8.62305
6.29	8.71094
6.295	8.71094
6.3	8.71094
6.305	8.71094
6.31	8.71094
6.315	8.71094
6.32	8.79883
6.325	8.79883
6.33	8.79883
6.335	8.79883
6.34	8.79883
6.345	8.79883
6.35	8.88672
6.355	8.88672
6.36	8.88672
6.365	8.88672
6.37	8.88672
6.375	8.88672
6.38	8.97461
6.385	8.97461
6.39	8.97461
6.395	8.97461
6.4	8.97461
6.405	8.97461
6.41	8.97461
6.415	9.0625
6.42	9.0625
6.425	9.0625
6.43	9.0625
6.435	9.0625
6.44	9.15039
6.445	9.15039
6.45	9.15039
6.455	9.15039
6.46	9.15039
6.465	9.23828
6.47	9.23828
6.475	9.23828
6.48	9.23828
6.485	9.23828
6.49	9.23828
6.495	9.23828
6.5	9.23828
6.505	9.32617
6.51	9.32617
6.515	9.32617
6.52	9.32617
6.525	9.32617
6.53	9.32617
6.535	9.32617
6.54	9.32617
6.545	9.32617
6.55	9.41406
6.555	9.41406
6.56	9.41406
6.565	9.41406
6.57	9.41406
6.575	9.41406
6.58	9.41406
6.585	9.41406
6.59	9.41406
6.595	9.41406
6.6	9.50195
6.605	9.50195
6.61	9.50195
6.615	9.50195
6.62	9.50195
6.625	9.50195
6.63	9.50195
6.635	9.50195
6.64	9.50195
6.645	9.50195
6.65	9.50195
6.655	9.58984
6.66	9.58984
6.665	9.58984
6.67	9.58984
6.675	9.58984
6.68	9.58984
6.685	9.58984
6.69	9.58984
6.695	9.58984
6.7	9.58984
6.705	9.58984
6.71	9.67773
6.715	9.67773
6.72	9.67773
6.725	9.67773
6.73	9.67773
6.735	9.67773
6.74	9.67773
6.745	9.67773
6.75	9.67773
6.755	9.67773
6.76	9.67773
6.765	9.67773
6.77	9.67773
6.775	9.67773
6.78	9.76563
6.785	9.76563
6.79	9.76563
6.795	9.76563
6.8	9.76563
6.805	9.76563
6.81	9.76563
6.815	9.76563
6.82	9.76563
6.825	9.76563
6.83	9.76563
6.835	9.76563
6.84	9.76563
6.845	9.76563
6.85	9.85352
6.855	9.85352
6.86	9.85352
6.865	9.85352
6.87	9.85352
6.875	9.85352
6.88	9.85352
6.885	9.85352
6.89	9.85352
6.895	9.85352
6.9	9.85352
6.905	9.85352
6.91	9.85352
6.915	9.85352
6.92	9.85352
6.925	9.85352
6.93	9.85352
6.935	9.85352
6.94	9.85352
6.945	9.85352
6.95	9.85352
6.955	9.94141
6.96	9.94141
6.965	9.94141
6.97	9.94141
6.975	9.94141
6.98	9.94141
6.985	9.94141
6.99	9.94141
6.995	9.94141
7	9.94141
7.005	9.94141
7.01	9.94141
7.015	9.94141
7.02	9.94141
7.025	9.94141
7.03	9.94141
7.035	9.94141
7.04	9.94141
7.045	9.94141
7.05	9.94141
7.055	9.94141
7.06	9.94141
7.065	9.94141
7.07	9.94141
7.075	9.94141
7.08	9.94141
7.085	9.94141
7.09	9.94141
7.095	9.94141
7.1	9.94141
7.105	9.94141
7.11	9.94141
7.115	10.0293
7.12	10.0293
7.125	10.0293
7.13	10.0293
7.135	10.0293
7.14	10.0293
7.145	10.0293
7.15	10.0293
7.155	10.0293
7.16	10.0293
7.165	10.0293
7.17	10.0293
7.175	10.0293
7.18	10.0293
7.185	10.0293
7.19	10.0293
7.195	10.0293
7.2	10.0293
7.205	10.0293
7.21	10.0293
7.215	10.0293
7.22	10.0293
7.225	10.0293
7.23	10.0293
7.235	10.0293
7.24	10.0293
7.245	10.0293
7.25	10.0293
7.255	10.0293
7.26	10.0293
7.265	10.0293
7.27	10.0293
7.275	10.0293
7.28	10.0293
7.285	10.0293
7.29	10.0293
7.295	10.0293
7.3	10.0293
7.305	10.0293
7.31	10.0293
7.315	10.0293
7.32	10.0293
7.325	10.1172
7.33	10.1172
7.335	10.1172
7.34	10.1172
7.345	10.1172
7.35	10.1172
7.355	10.1172
7.36	10.1172
7.365	10.1172
7.37	10.1172
7.375	10.1172
7.38	10.1172
7.385	10.1172
7.39	10.1172
7.395	10.1172
7.4	10.1172
7.405	10.1172
7.41	10.1172
7.415	10.1172
7.42	10.1172
7.425	10.1172
7.43	10.1172
7.435	10.1172
7.44	10.1172
7.445	10.1172
7.45	10.1172
7.455	10.1172
7.46	10.1172
7.465	10.1172
7.47	10.1172
7.475	10.1172
7.48	10.1172
7.485	10.1172
7.49	10.1172
7.495	10.1172
7.5	10.1172
7.505	10.1172
7.51	10.1172
7.515	10.1172
7.52	10.1172
7.525	10.1172
7.53	10.1172
7.535	10.1172
7.54	10.1172
7.545	10.1172
7.55	10.1172
7.555	10.1172
7.56	10.1172
7.565	10.1172
7.57	10.1172
7.575	10.1172
7.58	10.1172
7.585	10.1172
7.59	10.1172
7.595	10.0293
7.6	10.0293
7.605	10.0293
7.61	10.0293
7.615	10.0293
7.62	10.0293
7.625	10.0293
7.63	10.0293
7.635	10.0293
7.64	10.0293
7.645	10.0293
7.65	10.0293
7.655	10.0293
7.66	10.0293
7.665	10.0293
7.67	10.0293
7.675	10.0293
7.68	10.0293
7.685	10.0293
7.69	10.0293
7.695	10.0293
7.7	10.0293
7.705	10.0293
7.71	10.0293
7.715	10.0293
7.72	10.0293
7.725	10.0293
7.73	10.0293
7.735	10.0293
7.74	10.0293
7.745	10.0293
7.75	10.0293
7.755	10.0293
7.76	10.0293
7.765	10.0293
7.77	10.0293
7.775	10.0293
7.78	10.0293
7.785	10.0293
7.79	10.0293
7.795	10.0293
7.8	10.0293
7.805	10.0293
7.81	10.0293
7.815	10.0293
7.82	10.0293
7.825	10.0293
7.83	10.0293
7.835	10.0293
7.84	10.0293
7.845	10.0293
7.85	10.1172
7.855	10.1172
7.86	10.1172
7.865	10.1172
7.87	10.1172
7.875	10.1172
7.88	10.1172
7.885	10.1172
7.89	10.1172
7.895	10.1172
7.9	10.1172
7.905	10.1172
7.91	10.1172
7.915	10.1172
7.92	10.1172
7.925	10.1172
7.93	10.1172
7.935	10.1172
7.94	10.1172
7.945	10.1172
7.95	10.1172
7.955	10.1172
7.96	10.1172
7.965	10.1172
7.97	10.1172
7.975	10.1172
7.98	10.1172
7.985	10.1172
7.99	10.1172
7.995	10.1172
8	10.1172
8.005	10.1172
8.01	10.1172
8.015	10.1172
8.02	10.1172
8.025	10.1172
8.03	10.1172
8.035	10.1172
8.04	10.1172
8.045	10.1172
8.05	10.1172
8.055	10.1172
8.06	10.1172
8.065	10.1172
8.07	10.1172
8.075	10.1172
8.08	10.1172
8.085	10.1172
8.09	10.1172
8.095	10.1172
8.1	10.1172
8.105	10.1172
8.11	10.1172
8.115	10.1172
8.12	10.1172
8.125	10.1172
8.13	10.1172
8.135	10.1172
8.14	10.1172
8.145	10.1172
8.15	10.1172
8.155	10.1172
8.16	10.1172
8.165	10.1172
8.17	10.1172
8.175	10.1172
8.18	10.1172
8.185	10.1172
8.19	10.1172
8.195	10.1172
8.2	10.1172
8.205	10.1172
8.21	10.1172
8.215	10.1172
8.22	10.1172
8.225	10.1172
8.23	10.1172
8.235	10.1172
8.24	10.1172
8.245	10.1172
8.25	10.1172
8.255	10.1172
8.26	10.1172
8.265	10.1172
8.27	10.1172
8.275	10.1172
8.28	10.0293
8.285	10.0293
8.29	10.0293
8.295	10.0293
8.3	10.0293
8.305	10.0293
8.31	10.0293
8.315	10.0293
8.32	10.0293
8.325	10.0293
8.33	10.0293
8.335	10.0293
8.34	10.0293
8.345	10.0293
8.35	10.0293
8.355	10.0293
8.36	10.0293
8.365	10.0293
8.37	10.0293
8.375	10.0293
8.38	10.0293
8.385	10.0293
8.39	10.0293
8.395	10.0293
8.4	10.0293
8.405	10.0293
8.41	10.0293
8.415	10.0293
8.42	10.1172
8.425	10.1172
8.43	10.1172
8.435	10.1172
8.44	10.1172
8.445	10.1172
8.45	10.1172
8.455	10.1172
8.46	10.1172
8.465	10.1172
8.47	10.1172
8.475	10.1172
8.48	10.1172
8.485	10.1172
8.49	10.1172
8.495	10.1172
8.5	10.1172
8.505	10.1172
8.51	10.1172
8.515	10.1172
8.52	10.1172
8.525	10.1172
8.53	10.1172
8.535	10.1172
8.54	10.1172
8.545	10.1172
8.55	10.1172
8.555	10.1172
8.56	10.1172
8.565	10.1172
8.57	10.1172
8.575	10.1172
8.58	10.1172
8.585	10.1172
8.59	10.1172
8.595	10.1172
8.6	10.1172
8.605	10.1172
8.61	10.1172
8.615	10.1172
8.62	10.1172
8.625	10.1172
8.63	10.1172
8.635	10.1172
8.64	10.1172
8.645	10.1172
8.65	10.1172
8.655	10.1172
8.66	10.1172
8.665	10.1172
8.67	10.1172
8.675	10.1172
8.68	10.1172
8.685	10.1172
8.69	10.1172
8.695	10.1172
8.7	10.1172
8.705	10.1172
8.71	10.1172
8.715	10.1172
8.72	10.1172
8.725	10.1172
8.73	10.1172
8.735	10.1172
8.74	10.1172
8.745	10.1172
8.75	10.1172
8.755	10.1172
8.76	10.1172
8.765	10.1172
8.77	10.1172
8.775	10.1172
8.78	10.1172
8.785	10.1172
8.79	10.2051
8.795	10.2051
8.8	10.2051
8.805	10.2051
8.81	10.2051
8.815	10.2051
8.82	10.2051
8.825	10.2051
8.83	10.2051
8.835	10.2051
8.84	10.2051
8.845	10.2051
8.85	10.2051
8.855	10.2051
8.86	10.2051
8.865	10.2051
8.87	10.2051
8.875	10.2051
8.88	10.2051
8.885	10.2051
8.89	10.2051
8.895	10.2051
8.9	10.2051
8.905	10.2051
8.91	10.2051
8.915	10.2051
8.92	10.1172
8.925	10.1172
8.93	10.1172
8.935	10.1172
8.94	10.1172
8.945	10.1172
8.95	10.1172
8.955	10.1172
8.96	10.1172
8.965	10.1172
8.97	10.1172
8.975	10.1172
8.98	10.1172
8.985	10.1172
8.99	10.1172
8.995	10.1172
9	10.1172
9.005	10.1172
9.01	10.1172
9.015	10.1172
9.02	10.1172
9.025	10.1172
9.03	10.1172
9.035	10.1172
9.04	10.1172
9.045	10.1172
9.05	10.1172
9.055	10.1172
9.06	10.1172
9.065	10.1172
9.07	10.1172
9.075	10.1172
9.08	10.1172
9.085	10.1172
9.09	10.1172
9.095	10.1172
9.1	10.1172
9.105	10.1172
9.11	10.1172
9.115	10.1172
9.12	10.1172
9.125	10.1172
9.13	10.1172
9.135	10.1172
9.14	10.1172
9.145	10.1172
9.15	10.1172
9.155	10.1172
9.16	10.1172
9.165	10.1172
9.17	10.1172
9.175	10.1172
9.18	10.1172
9.185	10.1172
9.19	10.1172
9.195	10.1172
9.2	10.1172
9.205	10.1172
9.21	10.1172
9.215	10.1172
9.22	10.1172
9.225	10.1172
9.23	10.1172
9.235	10.1172
9.24	10.1172
9.245	10.1172
9.25	10.1172
9.255	10.1172
9.26	10.1172
9.265	10.1172
9.27	10.1172
9.275	10.1172
9.28	10.1172
9.285	10.1172
9.29	10.0293
9.295	10.0293
9.3	10.0293
9.305	10.0293
9.31	10.0293
9.315	10.0293
9.32	10.0293
9.325	10.0293
9.33	10.0293
9.335	10.0293
9.34	10.0293
9.345	10.0293
9.35	10.0293
9.355	10.0293
9.36	10.0293
9.365	10.0293
9.37	10.0293
9.375	10.0293
9.38	10.0293
9.385	10.0293
9.39	10.0293
9.395	10.0293
9.4	10.0293
9.405	10.0293
9.41	10.0293
9.415	10.1172
9.42	10.1172
9.425	10.1172
9.43	10.1172
9.435	10.1172
9.44	10.1172
9.445	10.1172
9.45	10.1172
9.455	10.1172
9.46	10.1172
9.465	10.1172
9.47	10.1172
9.475	10.1172
9.48	10.1172
9.485	10.1172
9.49	10.1172
9.495	10.1172
9.5	10.1172
9.505	10.1172
9.51	10.1172
9.515	10.1172
9.52	10.1172
9.525	10.1172
9.53	10.1172
9.535	10.1172
9.54	10.1172
9.545	10.1172
9.55	10.1172
9.555	10.1172
9.56	10.1172
9.565	10.1172
9.57	10.1172
9.575	10.1172
9.58	10.1172
9.585	10.1172
9.59	10.1172
9.595	10.1172
9.6	10.1172
9.605	10.1172
9.61	10.1172
9.615	10.1172
9.62	10.1172
9.625	10.1172
9.63	10.1172
9.635	10.1172
9.64	10.1172
9.645	10.1172
9.65	10.1172
9.655	10.1172
9.66	10.1172
9.665	10.1172
9.67	10.1172
9.675	10.1172
9.68	10.1172
9.685	10.1172
9.69	10.1172
9.695	10.1172
9.7	10.1172
9.705	10.1172
9.71	10.1172
9.715	10.1172
9.72	10.1172
9.725	10.1172
9.73	10.1172
9.735	10.1172
9.74	10.1172
9.745	10.1172
9.75	10.1172
9.755	10.1172
9.76	10.1172
9.765	10.1172
9.77	10.1172
9.775	10.1172
9.78	10.1172
9.785	10.1172
9.79	10.1172
9.795	10.1172
9.8	10.1172
9.805	10.1172
9.81	10.1172
9.815	10.1172
9.82	10.1172
9.825	10.1172
9.83	10.1172
9.835	10.1172
9.84	10.1172
9.845	10.1172
9.85	10.1172
9.855	10.1172
9.86	10.1172
9.865	10.1172
9.87	10.1172
9.875	10.1172
9.88	10.1172
9.885	10.1172
9.89	10.1172
9.895	10.1172
9.9	10.1172
9.905	10.1172
9.91	10.1172
9.915	10.1172
9.92	10.1172
9.925	10.1172
9.93	10.1172
9.935	10.1172
9.94	10.1172
9.945	10.1172
9.95	10.1172
9.955	10.1172
9.96	10.1172
9.965	10.1172
9.97	10.1172
9.975	10.1172
9.98	10.1172
9.985	10.1172
9.99	10.0293
9.995	10.0293
10	10.0293
10.005	10.0293
10.01	10.0293
10.015	10.0293
10.02	10.0293
10.025	10.0293
10.03	10.0293
10.035	10.0293
10.04	10.0293
10.045	10.0293
10.05	10.0293
10.055	10.0293
10.06	10.0293
10.065	9.94141
10.07	9.94141
10.075	9.94141
10.08	9.85352
10.085	9.85352
10.09	9.76563
10.095	9.76563
10.1	9.67773
10.105	9.67773
10.11	9.67773
10.115	9.58984
10.12	9.50195
10.125	9.41406
10.13	9.32617
10.135	9.23828
10.14	9.23828
10.145	9.15039
10.15	8.97461
10.155	8.97461
10.16	8.88672
10.165	8.79883
10.17	8.71094
10.175	8.62305
10.18	8.53516
10.185	8.44727
10.19	8.35937
10.195	8.27148
10.2	8.18359
10.205	8.0957
10.21	7.91992
10.215	7.83203
10.22	7.74414
10.225	7.56836
10.23	7.48047
10.235	7.39258
10.24	7.12891
10.245	7.04102
10.25	6.68945
10.255	6.60156
10.26	6.25
10.265	6.16211
10.27	6.07422
10.275	5.81055
10.28	5.72266
10.285	5.63477
10.29	5.45898
10.295	5.2832
10.3	5.19531
10.305	5.01953
10.31	4.93164
10.315	4.84375
10.32	4.49219
10.325	4.4043
10.33	4.31641
10.335	3.96484
10.34	3.87695
10.345	3.78906
10.35	3.61328
10.355	3.52539
10.36	3.34961
10.365	2.99805
10.37	2.91016
10.375	2.4707
10.38	2.38281
10.385	1.94336
10.39	1.85547
10.395	1.50391
10.4	1.41602
10.405	1.15234
10.41	1.06445
10.415	0.888672
10.42	0.800781
10.425	0.625
10.43	0.537109
10.435	0.361328
10.44	0.273438
10.445	0.185547
10.45	0.00976562
10.455	-0.166016
10.46	-0.166016
10.465	-0.429688
10.47	-0.517578
10.475	-0.869141
10.48	-0.957031
10.485	-0.957031
10.49	-1.13281
10.495	-1.2207
10.5	-1.30859
10.505	-1.48438
10.51	-1.57227
10.515	-1.66016
10.52	-1.74805
10.525	-1.83594
10.53	-1.92383
10.535	-2.09961
10.54	-2.1875
10.545	-2.45117
10.55	-2.45117
10.555	-2.53906
10.56	-2.71484
10.565	-2.80273
10.57	-2.80273
10.575	-2.97852
10.58	-3.06641
10.585	-3.06641
10.59	-3.33008
10.595	-3.33008
10.6	-3.41797
10.605	-3.50586
10.61	-3.59375
10.615	-3.68164
10.62	-3.76953
10.625	-3.85742
10.63	-3.85742
10.635	-4.0332
10.64	-4.0332
10.645	-4.12109
10.65	-4.20898
10.655	-4.20898
10.66	-4.29688
10.665	-4.38477
10.67	-4.38477
10.675	-4.47266
10.68	-4.56055
10.685	-4.56055
10.69	-4.56055
10.695	-4.73633
10.7	-4.82422
10.705	-4.82422
10.71	-4.91211
10.715	-4.91211
10.72	-4.91211
10.725	-5.08789
10.73	-5.08789
10.735	-5.08789
10.74	-5.17578
10.745	-5.17578
10.75	-5.26367
10.755	-5.35156
10.76	-5.35156
10.765	-5.35156
10.77	-5.43945
10.775	-5.52734
10.78	-5.61523
10.785	-5.61523
10.79	-5.61523
10.795	-5.70313
10.8	-5.70313
10.805	-5.70313
10.81	-5.79102
10.815	-5.79102
10.82	-5.87891
10.825	-5.87891
10.83	-5.9668
10.835	-5.9668
10.84	-6.05469
10.845	-6.05469
10.85	-6.14258
10.855	-6.14258
10.86	-6.14258
10.865	-6.23047
10.87	-6.23047
10.875	-6.23047
10.88	-6.31836
10.885	-6.31836
10.89	-6.31836
10.895	-6.40625
10.9	-6.40625
10.905	-6.40625
10.91	-6.49414
10.915	-6.49414
10.92	-6.49414
10.925	-6.58203
10.93	-6.58203
10.935	-6.66992
10.94	-6.66992
10.945	-6.75781
10.95	-6.75781
10.955	-6.8457
10.96	-6.8457
10.965	-6.8457
10.97	-6.93359
10.975	-6.93359
10.98	-6.93359
10.985	-6.93359
10.99	-7.02148
10.995	-7.02148
11	-7.02148
11.005	-7.10938
11.01	-7.10938
11.015	-7.10938
11.02	-7.19727
11.025	-7.19727
11.03	-7.19727
11.035	-7.19727
11.04	-7.28516
11.045	-7.28516
11.05	-7.28516
11.055	-7.28516
11.06	-7.37305
11.065	-7.37305
11.07	-7.37305
11.075	-7.46094
11.08	-7.46094
11.085	-7.46094
11.09	-7.54883
11.095	-7.54883
11.1	-7.54883
11.105	-7.54883
11.11	-7.54883
11.115	-7.54883
11.12	-7.63672
11.125	-7.63672
11.13	-7.72461
11.135	-7.72461
11.14	-7.72461
11.145	-7.72461
11.15	-7.72461
11.155	-7.72461
11.16	-7.8125
11.165	-7.8125
11.17	-7.8125
11.175	-7.90039
11.18	-7.90039
11.185	-7.90039
11.19	-7.98828
11.195	-7.98828
11.2	-7.98828
11.205	-7.98828
11.21	-7.98828
11.215	-8.07617
11.22	-8.07617
11.225	-8.07617
11.23	-8.07617
11.235	-8.07617
11.24	-8.07617
11.245	-8.16406
11.25	-8.16406
11.255	-8.16406
11.26	-8.16406
11.265	-8.16406
11.27	-8.25195
11.275	-8.25195
11.28	-8.25195
11.285	-8.25195
11.29	-8.25195
11.295	-8.33984
11.3	-8.33984
11.305	-8.33984
11.31	-8.33984
11.315	-8.33984
11.32	-8.33984
11.325	-8.33984
11.33	-8.42773
11.335	-8.42773
11.34	-8.42773
11.345	-8.42773
11.35	-8.42773
11.355	-8.42773
11.36	-8.42773
11.365	-8.51563
11.37	-8.51563
11.375	-8.51563
11.38	-8.51563
11.385	-8.51563
11.39	-8.51563
11.395	-8.51563
11.4	-8.60352
11.405	-8.60352
11.41	-8.60352
11.415	-8.60352
11.42	-8.60352
11.425	-8.60352
11.43	-8.60352
11.435	-8.60352
11.44	-8.60352
11.445	-8.69141
11.45	-8.69141
11.455	-8.69141
11.46	-8.69141
11.465	-8.69141
11.47	-8.69141
11.475	-8.69141
11.48	-8.69141
11.485	-8.69141
11.49	-8.69141
11.495	-8.69141
11.5	-8.69141
11.505	-8.69141
11.51	-8.69141
11.515	-8.7793
11.52	-8.7793
11.525	-8.7793
11.53	-8.7793
11.535	-8.7793
11.54	-8.7793
11.545	-8.7793
11.55	-8.7793
11.555	-8.7793
11.56	-8.7793
11.565	-8.7793
11.57	-8.7793
11.575	-8.7793
11.58	-8.7793
11.585	-8.86719
11.59	-8.86719
11.595	-8.86719
11.6	-8.86719
11.605	-8.86719
11.61	-8.86719
11.615	-8.86719
11.62	-8.86719
11.625	-8.86719
11.63	-8.86719
11.635	-8.86719
11.64	-8.86719
11.645	-8.86719
11.65	-8.86719
11.655	-8.86719
11.66	-8.95508
11.665	-8.95508
11.67	-8.95508
11.675	-8.95508
11.68	-8.95508
11.685	-8.95508
11.69	-8.95508
11.695	-8.95508
11.7	-8.95508
11.705	-8.95508
11.71	-8.95508
11.715	-8.95508
11.72	-8.95508
11.725	-8.95508
11.73	-8.95508
11.735	-9.04297
11.74	-9.04297
11.745	-9.04297
11.75	-9.04297
11.755	-9.04297
11.76	-9.04297
11.765	-9.04297
11.77	-9.04297
11.775	-9.04297
11.78	-9.04297
11.785	-9.04297
11.79	-9.04297
11.795	-9.04297
11.8	-9.04297
11.805	-9.04297
11.81	-9.04297
11.815	-9.04297
11.82	-9.13086
11.825	-9.13086
11.83	-9.13086
11.835	-9.13086
11.84	-9.13086
11.845	-9.13086
11.85	-9.13086
11.855	-9.13086
11.86	-9.13086
11.865	-9.13086
11.87	-9.13086
11.875	-9.13086
11.88	-9.13086
11.885	-9.13086
11.89	-9.13086
11.895	-9.21875
11.9	-9.21875
11.905	-9.21875
11.91	-9.21875
11.915	-9.21875
11.92	-9.21875
11.925	-9.21875
11.93	-9.21875
11.935	-9.21875
11.94	-9.21875
11.945	-9.21875
11.95	-9.21875
11.955	-9.21875
11.96	-9.21875
11.965	-9.21875
11.97	-9.30664
11.975	-9.30664
11.98	-9.30664
11.985	-9.30664
11.99	-9.30664
11.995	-9.30664
12	-9.30664
12.005	-9.30664
12.01	-9.30664
12.015	-9.30664
12.02	-9.30664
12.025	-9.30664
12.03	-9.30664
12.035	-9.30664
12.04	-9.30664
12.045	-9.30664
12.05	-9.30664
12.055	-9.30664
12.06	-9.30664
12.065	-9.39453
12.07	-9.39453
12.075	-9.39453
12.08	-9.39453
12.085	-9.39453
12.09	-9.39453
12.095	-9.39453
12.1	-9.39453
12.105	-9.39453
12.11	-9.39453
12.115	-9.39453
12.12	-9.39453
12.125	-9.39453
12.13	-9.39453
12.135	-9.39453
12.14	-9.39453
12.145	-9.39453
12.15	-9.39453
12.155	-9.39453
12.16	-9.39453
12.165	-9.39453
12.17	-9.39453
12.175	-9.39453
12.18	-9.39453
12.185	-9.39453
12.19	-9.39453
12.195	-9.39453
12.2	-9.39453
12.205	-9.39453
12.21	-9.39453
12.215	-9.39453
12.22	-9.39453
12.225	-9.39453
12.23	-9.39453
12.235	-9.39453
12.24	-9.39453
12.245	-9.39453
12.25	-9.48242
12.255	-9.48242
12.26	-9.48242
12.265	-9.48242
12.27	-9.48242
12.275	-9.48242
12.28	-9.48242
12.285	-9.48242
12.29	-9.48242
12.295	-9.48242
12.3	-9.48242
12.305	-9.48242
12.31	-9.48242
12.315	-9.48242
12.32	-9.48242
12.325	-9.48242
12.33	-9.48242
12.335	-9.48242
12.34	-9.48242
12.345	-9.48242
12.35	-9.48242
12.355	-9.48242
12.36	-9.48242
12.365	-9.48242
12.37	-9.48242
12.375	-9.48242
12.38	-9.48242
12.385	-9.48242
12.39	-9.48242
12.395	-9.48242
12.4	-9.48242
12.405	-9.48242
12.41	-9.48242
12.415	-9.48242
12.42	-9.48242
12.425	-9.48242
12.43	-9.48242
12.435	-9.48242
12.44	-9.48242
12.445	-9.48242
12.45	-9.48242
12.455	-9.48242
12.46	-9.48242
12.465	-9.48242
12.47	-9.48242
12.475	-9.48242
12.48	-9.48242
12.485	-9.48242
12.49	-9.48242
12.495	-9.48242
12.5	-9.48242
12.505	-9.48242
12.51	-9.48242
12.515	-9.48242
12.52	-9.48242
12.525	-9.48242
12.53	-9.48242
12.535	-9.48242
12.54	-9.48242
12.545	-9.48242
12.55	-9.48242
12.555	-9.48242
12.56	-9.48242
12.565	-9.48242
12.57	-9.48242
12.575	-9.48242
12.58	-9.48242
12.585	-9.48242
12.59	-9.48242
12.595	-9.48242
12.6	-9.48242
12.605	-9.57031
12.61	-9.57031
12.615	-9.57031
12.62	-9.57031
12.625	-9.57031
12.63	-9.57031
12.635	-9.57031
12.64	-9.57031
12.645	-9.57031
12.65	-9.57031
12.655	-9.57031
12.66	-9.57031
12.665	-9.57031
12.67	-9.57031
12.675	-9.57031
12.68	-9.57031
12.685	-9.57031
12.69	-9.57031
12.695	-9.57031
12.7	-9.57031
12.705	-9.57031
12.71	-9.57031
12.715	-9.57031
12.72	-9.57031
12.725	-9.57031
12.73	-9.57031
12.735	-9.57031
12.74	-9.57031
12.745	-9.57031
12.75	-9.57031
12.755	-9.57031
12.76	-9.57031
12.765	-9.57031
12.77	-9.57031
12.775	-9.57031
12.78	-9.57031
12.785	-9.57031
12.79	-9.57031
12.795	-9.57031
12.8	-9.57031
12.805	-9.57031
12.81	-9.57031
12.815	-9.57031
12.82	-9.57031
12.825	-9.57031
12.83	-9.57031
12.835	-9.57031
12.84	-9.57031
12.845	-9.57031
12.85	-9.57031
12.855	-9.57031
12.86	-9.57031
12.865	-9.6582
12.87	-9.6582
12.875	-9.6582
12.88	-9.6582
12.885	-9.6582
12.89	-9.6582
12.895	-9.6582
12.9	-9.6582
12.905	-9.6582
12.91	-9.6582
12.915	-9.6582
12.92	-9.6582
12.925	-9.6582
12.93	-9.6582
12.935	-9.6582
12.94	-9.6582
12.945	-9.6582
12.95	-9.6582
12.955	-9.6582
12.96	-9.6582
12.965	-9.6582
12.97	-9.6582
12.975	-9.6582
12.98	-9.6582
12.985	-9.6582
12.99	-9.6582
12.995	-9.6582
13	-9.6582
13.005	-9.6582
13.01	-9.6582
13.015	-9.6582
13.02	-9.6582
13.025	-9.6582
13.03	-9.6582
13.035	-9.6582
13.04	-9.6582
13.045	-9.6582
13.05	-9.6582
13.055	-9.6582
13.06	-9.6582
13.065	-9.6582
13.07	-9.6582
13.075	-9.6582
13.08	-9.6582
13.085	-9.6582
13.09	-9.6582
13.095	-9.6582
13.1	-9.6582
13.105	-9.6582
13.11	-9.6582
13.115	-9.6582
13.12	-9.6582
13.125	-9.6582
13.13	-9.6582
13.135	-9.6582
13.14	-9.6582
13.145	-9.6582
13.15	-9.6582
13.155	-9.6582
13.16	-9.6582
13.165	-9.6582
13.17	-9.6582
13.175	-9.6582
13.18	-9.6582
13.185	-9.6582
13.19	-9.6582
13.195	-9.6582
13.2	-9.6582
13.205	-9.6582
13.21	-9.6582
13.215	-9.6582
13.22	-9.6582
13.225	-9.6582
13.23	-9.6582
13.235	-9.6582
13.24	-9.6582
13.245	-9.6582
13.25	-9.6582
13.255	-9.6582
13.26	-9.6582
13.265	-9.6582
13.27	-9.6582
13.275	-9.6582
13.28	-9.6582
13.285	-9.6582
13.29	-9.6582
13.295	-9.6582
13.3	-9.6582
13.305	-9.6582
13.31	-9.6582
13.315	-9.6582
13.32	-9.6582
13.325	-9.6582
13.33	-9.6582
13.335	-9.6582
13.34	-9.6582
13.345	-9.6582
13.35	-9.6582
13.355	-9.6582
13.36	-9.6582
13.365	-9.6582
13.37	-9.6582
13.375	-9.6582
13.38	-9.6582
13.385	-9.6582
13.39	-9.6582
13.395	-9.6582
13.4	-9.6582
13.405	-9.6582
13.41	-9.6582
13.415	-9.6582
13.42	-9.6582
13.425	-9.6582
13.43	-9.6582
13.435	-9.6582
13.44	-9.6582
13.445	-9.6582
13.45	-9.6582
13.455	-9.6582
13.46	-9.6582
13.465	-9.6582
13.47	-9.6582
13.475	-9.6582
13.48	-9.6582
13.485	-9.6582
13.49	-9.6582
13.495	-9.6582
13.5	-9.6582
13.505	-9.6582
13.51	-9.6582
13.515	-9.6582
13.52	-9.6582
13.525	-9.6582
13.53	-9.6582
13.535	-9.6582
13.54	-9.6582
13.545	-9.6582
13.55	-9.6582
13.555	-9.6582
13.56	-9.6582
13.565	-9.6582
13.57	-9.6582
13.575	-9.6582
13.58	-9.6582
13.585	-9.6582
13.59	-9.6582
13.595	-9.6582
13.6	-9.6582
13.605	-9.6582
13.61	-9.6582
13.615	-9.6582
13.62	-9.6582
13.625	-9.6582
13.63	-9.6582
13.635	-9.6582
13.64	-9.6582
13.645	-9.6582
13.65	-9.6582
13.655	-9.6582
13.66	-9.6582
13.665	-9.6582
13.67	-9.6582
13.675	-9.6582
13.68	-9.6582
13.685	-9.6582
13.69	-9.6582
13.695	-9.6582
13.7	-9.6582
13.705	-9.6582
13.71	-9.6582
13.715	-9.6582
13.72	-9.6582
13.725	-9.6582
13.73	-9.6582
13.735	-9.6582
13.74	-9.6582
13.745	-9.6582
13.75	-9.6582
13.755	-9.6582
13.76	-9.6582
13.765	-9.6582
13.77	-9.6582
13.775	-9.6582
13.78	-9.6582
13.785	-9.6582
13.79	-9.6582
13.795	-9.6582
13.8	-9.6582
13.805	-9.6582
13.81	-9.6582
13.815	-9.6582
13.82	-9.6582
13.825	-9.6582
13.83	-9.6582
13.835	-9.6582
13.84	-9.6582
13.845	-9.6582
13.85	-9.6582
13.855	-9.6582
13.86	-9.6582
13.865	-9.6582
13.87	-9.6582
13.875	-9.6582
13.88	-9.6582
13.885	-9.6582
13.89	-9.6582
13.895	-9.6582
13.9	-9.6582
13.905	-9.6582
13.91	-9.6582
13.915	-9.6582
13.92	-9.6582
13.925	-9.6582
13.93	-9.6582
13.935	-9.6582
13.94	-9.6582
13.945	-9.6582
13.95	-9.6582
13.955	-9.6582
13.96	-9.6582
13.965	-9.6582
13.97	-9.6582
13.975	-9.6582
13.98	-9.6582
13.985	-9.6582
13.99	-9.6582
13.995	-9.6582
14	-9.6582
14.005	-9.6582
14.01	-9.6582
14.015	-9.6582
14.02	-9.6582
14.025	-9.6582
14.03	-9.6582
14.035	-9.6582
14.04	-9.6582
14.045	-9.6582
14.05	-9.6582
14.055	-9.6582
14.06	-9.6582
14.065	-9.6582
14.07	-9.6582
14.075	-9.6582
14.08	-9.6582
14.085	-9.6582
14.09	-9.6582
14.095	-9.74609
14.1	-9.74609
14.105	-9.74609
14.11	-9.74609
14.115	-9.74609
14.12	-9.74609
14.125	-9.74609
14.13	-9.74609
14.135	-9.74609
14.14	-9.74609
14.145	-9.74609
14.15	-9.74609
14.155	-9.74609
14.16	-9.74609
14.165	-9.74609
14.17	-9.74609
14.175	-9.74609
14.18	-9.74609
14.185	-9.74609
14.19	-9.74609
14.195	-9.74609
14.2	-9.74609
14.205	-9.74609
14.21	-9.74609
14.215	-9.74609
14.22	-9.74609
14.225	-9.74609
14.23	-9.74609
14.235	-9.74609
14.24	-9.74609
14.245	-9.74609
14.25	-9.74609
14.255	-9.74609
14.26	-9.74609
14.265	-9.74609
14.27	-9.74609
14.275	-9.74609
14.28	-9.74609
14.285	-9.74609
14.29	-9.74609
14.295	-9.74609
14.3	-9.74609
14.305	-9.74609
14.31	-9.74609
14.315	-9.74609
14.32	-9.74609
14.325	-9.74609
14.33	-9.74609
14.335	-9.74609
14.34	-9.74609
14.345	-9.74609
14.35	-9.74609
14.355	-9.74609
14.36	-9.74609
14.365	-9.74609
14.37	-9.74609
14.375	-9.74609
14.38	-9.74609
14.385	-9.74609
14.39	-9.74609
14.395	-9.74609
14.4	-9.74609
14.405	-9.74609
14.41	-9.74609
14.415	-9.74609
14.42	-9.74609
14.425	-9.74609
14.43	-9.74609
14.435	-9.74609
14.44	-9.74609
14.445	-9.74609
14.45	-9.74609
14.455	-9.74609
14.46	-9.74609
14.465	-9.74609
14.47	-9.74609
14.475	-9.74609
14.48	-9.74609
14.485	-9.74609
14.49	-9.74609
14.495	-9.74609
14.5	-9.74609
14.505	-9.74609
14.51	-9.74609
14.515	-9.74609
14.52	-9.74609
14.525	-9.74609
14.53	-9.74609
14.535	-9.74609
14.54	-9.74609
14.545	-9.74609
14.55	-9.74609
14.555	-9.74609
14.56	-9.74609
14.565	-9.74609
14.57	-9.74609
14.575	-9.74609
14.58	-9.74609
14.585	-9.74609
14.59	-9.74609
14.595	-9.74609
14.6	-9.74609
14.605	-9.74609
14.61	-9.74609
14.615	-9.74609
14.62	-9.74609
14.625	-9.74609
14.63	-9.74609
14.635	-9.74609
14.64	-9.74609
14.645	-9.74609
14.65	-9.74609
14.655	-9.74609
14.66	-9.74609
14.665	-9.74609
14.67	-9.74609
14.675	-9.74609
14.68	-9.74609
14.685	-9.74609
14.69	-9.74609
14.695	-9.74609
14.7	-9.74609
14.705	-9.74609
14.71	-9.74609
14.715	-9.74609
14.72	-9.74609
14.725	-9.74609
14.73	-9.74609
14.735	-9.74609
14.74	-9.74609
14.745	-9.74609
14.75	-9.74609
14.755	-9.74609
14.76	-9.74609
14.765	-9.74609
14.77	-9.74609
14.775	-9.74609
14.78	-9.74609
14.785	-9.74609
14.79	-9.74609
14.795	-9.74609
14.8	-9.74609
14.805	-9.74609
14.81	-9.74609
14.815	-9.74609
14.82	-9.74609
14.825	-9.83398
14.83	-9.83398
14.835	-9.83398
14.84	-9.83398
14.845	-9.83398
14.85	-9.83398
14.855	-9.83398
14.86	-9.83398
14.865	-9.83398
14.87	-9.83398
14.875	-9.83398
14.88	-9.83398
14.885	-9.83398
14.89	-9.83398
14.895	-9.83398
14.9	-9.83398
14.905	-9.83398
14.91	-9.83398
14.915	-9.83398
14.92	-9.83398
14.925	-9.83398
14.93	-9.83398
14.935	-9.83398
14.94	-9.83398
14.945	-9.83398
14.95	-9.83398
14.955	-9.83398
14.96	-9.83398
14.965	-9.83398
14.97	-9.83398
14.975	-9.83398
14.98	-9.83398
14.985	-9.83398
14.99	-9.83398
14.995	-9.83398
15	-9.83398
15.005	-9.83398
15.01	-9.83398
15.015	-9.83398
15.02	-9.83398
15.025	-9.83398
15.03	-9.83398
15.035	-9.83398
15.04	-9.74609
15.045	-9.74609
15.05	-9.74609
15.055	-9.74609
15.06	-9.74609
15.065	-9.74609
15.07	-9.74609
15.075	-9.74609
15.08	-9.74609
15.085	-9.74609
15.09	-9.74609
15.095	-9.6582
15.1	-9.6582
15.105	-9.6582
15.11	-9.6582
15.115	-9.6582
15.12	-9.6582
15.125	-9.6582
15.13	-9.57031
15.135	-9.57031
15.14	-9.57031
15.145	-9.48242
15.15	-9.48242
15.155	-9.48242
15.16	-9.39453
15.165	-9.39453
15.17	-9.30664
15.175	-9.30664
15.18	-9.13086
15.185	-9.13086
15.19	-9.04297
15.195	-8.95508
15.2	-8.95508
15.205	-8.86719
15.21	-8.7793
15.215	-8.7793
15.22	-8.60352
15.225	-8.60352
15.23	-8.51563
15.235	-8.33984
15.24	-8.25195
15.245	-8.25195
15.25	-7.98828
15.255	-7.90039
15.26	-7.72461
15.265	-7.63672
15.27	-7.54883
15.275	-7.28516
15.28	-7.19727
15.285	-7.10938
15.29	-6.8457
15.295	-6.75781
15.3	-6.49414
15.305	-6.31836
15.31	-6.23047
15.315	-6.05469
15.32	-5.9668
15.325	-5.87891
15.33	-5.61523
15.335	-5.52734
15.34	-5.43945
15.345	-5.17578
15.35	-5.08789
15.355	-5
15.36	-4.82422
15.365	-4.64844
15.37	-4.56055
15.375	-4.38477
15.38	-4.20898
15.385	-4.12109
15.39	-3.85742
15.395	-3.76953
15.4	-3.68164
15.405	-3.33008
15.41	-3.24219
15.415	-2.97852
15.42	-2.89063
15.425	-2.80273
15.43	-2.45117
15.435	-2.36328
15.44	-2.1875
15.445	-1.92383
15.45	-1.74805
15.455	-1.39648
15.46	-1.30859
15.465	-1.2207
15.47	-0.869141
15.475	-0.78125
15.48	-0.693359
15.485	-0.341797
15.49	-0.253906
15.495	0.00976562
15.5	0.0976562
15.505	0.185547
15.51	0.449219
15.515	0.537109
15.52	0.625
15.525	0.800781
15.53	0.888672
15.535	0.976562
15.54	1.24023
15.545	1.32812
15.55	1.41602
15.555	1.5918
15.56	1.67969
15.565	1.76758
15.57	2.03125
15.575	2.11914
15.58	2.29492
15.585	2.38281
15.59	2.4707
15.595	2.64648
15.6	2.73437
15.605	2.82227
15.61	2.99805
15.615	3.08594
15.62	3.17383
15.625	3.26172
15.63	3.34961
15.635	3.4375
15.64	3.61328
15.645	3.70117
15.65	3.87695
15.655	3.96484
15.66	4.05273
15.665	4.14063
15.67	4.22852
15.675	4.31641
15.68	4.49219
15.685	4.49219
15.69	4.58008
15.695	4.66797
15.7	4.66797
15.705	4.75586
15.71	4.93164
15.715	4.93164
15.72	4.93164
15.725	5.10742
15.73	5.10742
15.735	5.19531
15.74	5.19531
15.745	5.2832
15.75	5.2832
15.755	5.37109
15.76	5.37109
15.765	5.45898
15.77	5.54688
15.775	5.54688
15.78	5.63477
15.785	5.63477
15.79	5.63477
15.795	5.72266
15.8	5.72266
15.805	5.72266
15.81	5.81055
15.815	5.81055
15.82	5.81055
15.825	5.81055
15.83	5.89844
15.835	5.98633
15.84	5.98633
15.845	5.98633
15.85	6.07422
15.855	6.07422
15.86	6.07422
15.865	6.07422
15.87	6.07422
15.875	6.16211
15.88	6.16211
15.885	6.16211
15.89	6.25
15.895	6.25
15.9	6.25
15.905	6.25
15.91	6.33789
15.915	6.33789
15.92	6.33789
15.925	6.33789
15.93	6.42578
15.935	6.42578
15.94	6.42578
15.945	6.42578
15.95	6.51367
15.955	6.51367
15.96	6.51367
15.965	6.60156
15.97	6.60156
15.975	6.68945
15.98	6.68945
15.985	6.77734
15.99	6.77734
15.995	6.77734
16	6.77734
16.005	6.86523
16.01	6.86523
16.015	6.86523
16.02	6.95312
16.025	6.95312
16.03	6.95312
16.035	7.04102
16.04	7.04102
16.045	7.04102
16.05	7.12891
16.055	7.12891
16.06	7.12891
16.065	7.12891
16.07	7.2168
16.075	7.2168
16.08	7.2168
16.085	7.30469
16.09	7.30469
16.095	7.39258
16.1	7.39258
16.105	7.39258
16.11	7.48047
16.115	7.48047
16.12	7.48047
16.125	7.48047
16.13	7.48047
16.135	7.56836
16.14	7.56836
16.145	7.56836
16.15	7.65625
16.155	7.65625
16.16	7.65625
16.165	7.74414
16.17	7.74414
16.175	7.74414
16.18	7.83203
16.185	7.83203
16.19	7.83203
16.195	7.83203
16.2	7.83203
16.205	7.91992
16.21	7.91992
16.215	7.91992
16.22	8.00781
16.225	8.00781
16.23	8.00781
16.235	8.0957
16.24	8.0957
16.245	8.0957
16.25	8.0957
16.255	8.0957
16.26	8.18359
16.265	8.18359
16.27	8.18359
16.275	8.27148
16.28	8.27148
16.285	8.27148
16.29	8.27148
16.295	8.27148
16.3	8.27148
16.305	8.35937
16.31	8.35937
16.315	8.35937
16.32	8.35937
16.325	8.35937
16.33	8.35937
16.335	8.44727
16.34	8.44727
16.345	8.44727
16.35	8.44727
16.355	8.44727
16.36	8.44727
16.365	8.44727
16.37	8.53516
16.375	8.53516
16.38	8.53516
16.385	8.53516
16.39	8.53516
16.395	8.53516
16.4	8.53516
16.405	8.53516
16.41	8.62305
16.415	8.62305
16.42	8.62305
16.425	8.62305
16.43	8.62305
16.435	8.62305
16.44	8.62305
16.445	8.62305
16.45	8.71094
16.455	8.71094
16.46	8.71094
16.465	8.71094
16.47	8.71094
16.475	8.71094
16.48	8.71094
16.485	8.79883
16.49	8.79883
16.495	8.79883
16.5	8.79883
16.505	8.79883
16.51	8.79883
16.515	8.79883
16.52	8.79883
16.525	8.79883
16.53	8.88672
16.535	8.88672
16.54	8.88672
16.545	8.88672
16.55	8.88672
16.555	8.88672
16.56	8.88672
16.565	8.88672
16.57	8.97461
16.575	8.97461
16.58	8.97461
16.585	8.97461
16.59	8.97461
16.595	8.97461
16.6	8.97461
16.605	8.97461
16.61	9.0625
16.615	9.0625
16.62	9.0625
16.625	9.0625
16.63	9.0625
16.635	9.0625
16.64	9.0625
16.645	9.0625
16.65	9.15039
16.655	9.15039
16.66	9.15039
16.665	9.15039
16.67	9.15039
16.675	9.15039
16.68	9.15039
16.685	9.23828
16.69	9.23828
16.695	9.23828
16.7	9.23828
16.705	9.23828
16.71	9.23828
16.715	9.23828
16.72	9.32617
16.725	9.32617
16.73	9.32617
16.735	9.32617
16.74	9.32617
16.745	9.32617
16.75	9.32617
16.755	9.32617
16.76	9.32617
16.765	9.32617
16.77	9.32617
16.775	9.41406
16.78	9.41406
16.785	9.41406
16.79	9.41406
16.795	9.41406
16.8	9.41406
16.805	9.41406
16.81	9.41406
16.815	9.41406
16.82	9.41406
16.825	9.41406
16.83	9.50195
16.835	9.50195
16.84	9.50195
16.845	9.50195
16.85	9.50195
16.855	9.50195
16.86	9.50195
16.865	9.50195
16.87	9.50195
16.875	9.50195
16.88	9.50195
16.885	9.50195
16.89	9.50195
16.895	9.50195
16.9	9.50195
16.905	9.50195
16.91	9.50195
16.915	9.58984
16.92	9.58984
16.925	9.58984
16.93	9.58984
16.935	9.58984
16.94	9.58984
16.945	9.58984
16.95	9.58984
16.955	9.58984
16.96	9.58984
16.965	9.58984
16.97	9.58984
16.975	9.58984
16.98	9.58984
16.985	9.58984
16.99	9.58984
16.995	9.58984
17	9.58984
17.005	9.58984
17.01	9.58984
17.015	9.58984
17.02	9.58984
17.025	9.67773
17.03	9.67773
17.035	9.67773
17.04	9.67773
17.045	9.67773
17.05	9.67773
17.055	9.67773
17.06	9.67773
17.065	9.67773
17.07	9.67773
17.075	9.67773
17.08	9.67773
17.085	9.67773
17.09	9.67773
17.095	9.67773
17.1	9.67773
17.105	9.67773
17.11	9.67773
17.115	9.67773
17.12	9.67773
17.125	9.67773
17.13	9.67773
17.135	9.67773
17.14	9.67773
17.145	9.67773
17.15	9.67773
17.155	9.67773
17.16	9.67773
17.165	9.67773
17.17	9.67773
17.175	9.67773
17.18	9.67773
17.185	9.67773
17.19	9.67773
17.195	9.67773
17.2	9.67773
17.205	9.67773
17.21	9.67773
17.215	9.67773
17.22	9.67773
17.225	9.76563
17.23	9.76563
17.235	9.76563
17.24	9.76563
17.245	9.76563
17.25	9.76563
17.255	9.76563
17.26	9.76563
17.265	9.76563
17.27	9.76563
17.275	9.76563
17.28	9.76563
17.285	9.76563
17.29	9.76563
17.295	9.76563
17.3	9.76563
17.305	9.76563
17.31	9.76563
17.315	9.76563
17.32	9.76563
17.325	9.76563
17.33	9.76563
17.335	9.76563
17.34	9.76563
17.345	9.76563
17.35	9.76563
17.355	9.76563
17.36	9.76563
17.365	9.76563
17.37	9.76563
17.375	9.76563
17.38	9.76563
17.385	9.76563
17.39	9.76563
17.395	9.76563
17.4	9.76563
17.405	9.76563
17.41	9.76563
17.415	9.76563
17.42	9.76563
17.425	9.76563
17.43	9.76563
17.435	9.76563
17.44	9.76563
17.445	9.76563
17.45	9.76563
17.455	9.76563
17.46	9.85352
17.465	9.85352
17.47	9.85352
17.475	9.85352
17.48	9.85352
17.485	9.85352
17.49	9.85352
17.495	9.85352
17.5	9.85352
17.505	9.85352
17.51	9.85352
17.515	9.85352
17.52	9.85352
17.525	9.85352
17.53	9.85352
17.535	9.85352
17.54	9.85352
17.545	9.85352
17.55	9.85352
17.555	9.85352
17.56	9.85352
17.565	9.85352
17.57	9.85352
17.575	9.85352
17.58	9.85352
17.585	9.85352
17.59	9.85352
17.595	9.85352
17.6	9.85352
17.605	9.85352
17.61	9.85352
17.615	9.85352
17.62	9.85352
17.625	9.85352
17.63	9.85352
17.635	9.85352
17.64	9.85352
17.645	9.85352
17.65	9.85352
17.655	9.85352
17.66	9.85352
17.665	9.85352
17.67	9.85352
17.675	9.85352
17.68	9.85352
17.685	9.85352
17.69	9.85352
17.695	9.85352
17.7	9.85352
17.705	9.85352
17.71	9.85352
17.715	9.85352
17.72	9.85352
17.725	9.85352
17.73	9.85352
17.735	9.85352
17.74	9.85352
17.745	9.85352
17.75	9.85352
17.755	9.85352
17.76	9.85352
17.765	9.85352
17.77	9.85352
17.775	9.85352
17.78	9.85352
17.785	9.85352
17.79	9.85352
17.795	9.85352
17.8	9.85352
17.805	9.85352
17.81	9.85352
17.815	9.85352
17.82	9.85352
17.825	9.85352
17.83	9.85352
17.835	9.85352
17.84	9.85352
17.845	9.85352
17.85	9.85352
17.855	9.85352
17.86	9.85352
17.865	9.85352
17.87	9.85352
17.875	9.85352
17.88	9.85352
17.885	9.85352
17.89	9.85352
17.895	9.85352
17.9	9.85352
17.905	9.85352
17.91	9.85352
17.915	9.85352
17.92	9.85352
17.925	9.85352
17.93	9.85352
17.935	9.85352
17.94	9.85352
17.945	9.85352
17.95	9.85352
17.955	9.85352
17.96	9.85352
17.965	9.85352
17.97	9.85352
17.975	9.85352
17.98	9.85352
17.985	9.85352
17.99	9.85352
17.995	9.85352
18	9.85352
18.005	9.85352
18.01	9.85352
18.015	9.85352
18.02	9.85352
18.025	9.85352
18.03	9.85352
18.035	9.85352
18.04	9.85352
18.045	9.85352
18.05	9.85352
18.055	9.85352
18.06	9.85352
18.065	9.85352
18.07	9.85352
18.075	9.85352
18.08	9.85352
18.085	9.85352
18.09	9.85352
18.095	9.85352
18.1	9.85352
18.105	9.85352
18.11	9.85352
18.115	9.85352
18.12	9.85352
18.125	9.85352
18.13	9.85352
18.135	9.85352
18.14	9.85352
18.145	9.85352
18.15	9.85352
18.155	9.85352
18.16	9.85352
18.165	9.85352
18.17	9.85352
18.175	9.85352
18.18	9.85352
18.185	9.85352
18.19	9.85352
18.195	9.85352
18.2	9.85352
18.205	9.85352
18.21	9.85352
18.215	9.85352
18.22	9.85352
18.225	9.85352
18.23	9.85352
18.235	9.85352
18.24	9.85352
18.245	9.85352
18.25	9.85352
18.255	9.85352
18.26	9.85352
18.265	9.85352
18.27	9.85352
18.275	9.85352
18.28	9.85352
18.285	9.85352
18.29	9.85352
18.295	9.85352
18.3	9.85352
18.305	9.85352
18.31	9.85352
18.315	9.85352
18.32	9.85352
18.325	9.85352
18.33	9.85352
18.335	9.85352
18.34	9.85352
18.345	9.85352
18.35	9.85352
18.355	9.85352
18.36	9.85352
18.365	9.85352
18.37	9.85352
18.375	9.94141
18.38	9.94141
18.385	9.94141
18.39	9.94141
18.395	9.94141
18.4	9.94141
18.405	9.94141
18.41	9.94141
18.415	9.94141
18.42	9.94141
18.425	9.94141
18.43	9.94141
18.435	9.94141
18.44	9.94141
18.445	9.94141
18.45	9.94141
18.455	9.94141
18.46	9.94141
18.465	9.94141
18.47	9.94141
18.475	9.94141
18.48	9.94141
18.485	9.94141
18.49	9.94141
18.495	9.94141
18.5	9.94141
18.505	9.94141
18.51	9.94141
18.515	9.94141
18.52	9.94141
18.525	9.94141
18.53	9.94141
18.535	9.94141
18.54	9.94141
18.545	9.94141
18.55	9.94141
18.555	9.94141
18.56	9.94141
18.565	9.94141
18.57	9.94141
18.575	9.94141
18.58	9.94141
18.585	9.94141
18.59	9.94141
18.595	9.94141
18.6	9.94141
18.605	9.94141
18.61	9.94141
18.615	9.94141
18.62	9.94141
18.625	9.94141
18.63	9.94141
18.635	9.94141
18.64	9.94141
18.645	9.94141
18.65	9.94141
18.655	9.94141
18.66	9.94141
18.665	9.94141
18.67	9.94141
18.675	9.94141
18.68	9.94141
18.685	9.94141
18.69	9.94141
18.695	9.94141
18.7	9.94141
18.705	9.94141
18.71	9.94141
18.715	9.94141
18.72	9.94141
18.725	9.94141
18.73	9.94141
18.735	9.94141
18.74	9.94141
18.745	9.94141
18.75	9.94141
18.755	9.94141
18.76	9.94141
18.765	9.94141
18.77	9.94141
18.775	9.94141
18.78	9.94141
18.785	9.94141
18.79	9.94141
18.795	9.94141
18.8	9.94141
18.805	9.94141
18.81	9.94141
18.815	9.94141
18.82	9.94141
18.825	9.94141
18.83	9.94141
18.835	9.94141
18.84	9.94141
18.845	9.94141
18.85	9.94141
18.855	9.94141
18.86	9.94141
18.865	9.94141
18.87	9.94141
18.875	9.94141
18.88	9.94141
18.885	9.94141
18.89	9.94141
18.895	9.94141
18.9	9.94141
18.905	9.94141
18.91	9.94141
18.915	9.94141
18.92	9.94141
18.925	9.94141
18.93	9.94141
18.935	9.94141
18.94	9.94141
18.945	9.94141
18.95	9.94141
18.955	9.94141
18.96	9.94141
18.965	9.94141
18.97	9.94141
18.975	9.94141
18.98	9.94141
18.985	9.94141
18.99	9.94141
18.995	9.94141
19	9.94141
19.005	9.94141
19.01	9.94141
19.015	9.94141
19.02	9.94141
19.025	9.94141
19.03	9.94141
19.035	9.94141
19.04	9.85352
19.045	9.85352
19.05	9.85352
19.055	9.85352
19.06	9.85352
19.065	9.85352
19.07	9.85352
19.075	9.85352
19.08	9.85352
19.085	9.85352
19.09	9.85352
19.095	9.85352
19.1	9.85352
19.105	9.85352
19.11	9.85352
19.115	9.85352
19.12	9.85352
19.125	9.85352
19.13	9.85352
19.135	9.85352
19.14	9.85352
19.145	9.85352
19.15	9.85352
19.155	9.85352
19.16	9.85352
19.165	9.85352
19.17	9.85352
19.175	9.85352
19.18	9.85352
19.185	9.94141
19.19	9.94141
19.195	9.94141
19.2	9.94141
19.205	9.94141
19.21	9.94141
19.215	9.94141
19.22	9.94141
19.225	9.94141
19.23	9.94141
19.235	9.94141
19.24	9.94141
19.245	9.94141
19.25	9.94141
19.255	9.94141
19.26	9.94141
19.265	9.94141
19.27	9.94141
19.275	9.94141
19.28	9.94141
19.285	9.94141
19.29	9.94141
19.295	9.94141
19.3	9.94141
19.305	9.94141
19.31	9.94141
19.315	9.94141
19.32	9.94141
19.325	9.94141
19.33	9.94141
19.335	9.94141
19.34	9.94141
19.345	9.94141
19.35	9.94141
19.355	9.94141
19.36	9.94141
19.365	9.94141
19.37	9.94141
19.375	9.94141
19.38	9.94141
19.385	9.94141
19.39	9.94141
19.395	9.94141
19.4	9.94141
19.405	9.94141
19.41	9.94141
19.415	9.94141
19.42	9.94141
19.425	9.94141
19.43	9.94141
19.435	9.94141
19.44	9.94141
19.445	9.94141
19.45	9.94141
19.455	9.94141
19.46	9.94141
19.465	9.94141
19.47	9.94141
19.475	9.94141
19.48	9.94141
19.485	9.94141
19.49	9.94141
19.495	9.94141
19.5	9.94141
19.505	9.94141
19.51	9.94141
19.515	9.94141
19.52	9.94141
19.525	9.94141
19.53	9.94141
19.535	9.94141
19.54	9.94141
19.545	10.0293
19.55	10.0293
19.555	10.0293
19.56	10.0293
19.565	10.0293
19.57	10.0293
19.575	10.0293
19.58	10.0293
19.585	10.0293
19.59	10.0293
19.595	10.0293
19.6	10.0293
19.605	10.0293
19.61	10.0293
19.615	10.0293
19.62	10.0293
19.625	10.0293
19.63	10.0293
19.635	10.0293
19.64	10.0293
19.645	10.0293
19.65	10.0293
19.655	10.0293
19.66	10.0293
19.665	10.0293
19.67	9.94141
19.675	9.94141
19.68	9.94141
19.685	9.94141
19.69	9.94141
19.695	9.94141
19.7	9.94141
19.705	9.94141
19.71	9.94141
19.715	9.94141
19.72	9.94141
19.725	9.94141
19.73	9.94141
19.735	9.94141
19.74	9.94141
19.745	9.94141
19.75	9.94141
19.755	9.94141
19.76	9.94141
19.765	9.94141
19.77	9.94141
19.775	9.94141
19.78	9.94141
19.785	9.94141
19.79	9.94141
19.795	9.94141
19.8	9.94141
19.805	9.94141
19.81	9.94141
19.815	9.94141
19.82	9.94141
19.825	9.94141
19.83	9.94141
19.835	9.94141
19.84	9.94141
19.845	9.94141
19.85	9.94141
19.855	9.94141
19.86	9.94141
19.865	9.94141
19.87	9.94141
19.875	9.94141
19.88	9.94141
19.885	9.94141
19.89	9.94141
19.895	9.94141
19.9	9.94141
19.905	9.94141
19.91	9.94141
19.915	9.94141
19.92	9.94141
19.925	9.94141
19.93	9.94141
19.935	9.94141
19.94	9.94141
19.945	9.94141
19.95	9.94141
19.955	9.94141
19.96	9.94141
19.965	9.94141
19.97	9.85352
19.975	9.85352
19.98	9.85352
19.985	9.85352
19.99	9.85352
19.995	9.85352
20	9.85352
20.005	9.85352
20.01	9.85352
20.015	9.85352
20.02	9.85352
20.025	9.85352
20.03	9.85352
20.035	9.85352
20.04	9.85352
20.045	9.85352
20.05	9.85352
20.055	9.85352
20.06	9.85352
20.065	9.76563
20.07	9.76563
20.075	9.76563
20.08	9.76563
20.085	9.76563
20.09	9.67773
20.095	9.67773
20.1	9.67773
20.105	9.67773
20.11	9.58984
20.115	9.58984
20.12	9.58984
20.125	9.50195
20.13	9.50195
20.135	9.41406
20.14	9.41406
20.145	9.32617
20.15	9.32617
20.155	9.23828
20.16	9.23828
20.165	9.15039
20.17	9.0625
20.175	8.97461
20.18	8.88672
20.185	8.88672
20.19	8.79883
20.195	8.62305
20.2	8.53516
20.205	8.35937
20.21	8.27148
20.215	8.18359
20.22	8.0957
20.225	8.00781
20.23	7.91992
20.235	7.74414
20.24	7.65625
20.245	7.56836
20.25	7.39258
20.255	7.39258
20.26	7.30469
20.265	7.04102
20.27	6.95312
20.275	6.86523
20.28	6.51367
20.285	6.42578
20.29	6.33789
20.295	5.98633
20.3	5.89844
20.305	5.81055
20.31	5.54688
20.315	5.45898
20.32	5.10742
20.325	5.01953
20.33	4.93164
20.335	4.75586
20.34	4.66797
20.345	4.49219
20.35	4.22852
20.355	4.14063
20.36	4.05273
20.365	3.78906
20.37	3.70117
20.375	3.61328
20.38	3.26172
20.385	3.17383
20.39	2.82227
20.395	2.73437
20.4	2.64648
20.405	2.29492
20.41	2.20703
20.415	1.85547
20.42	1.76758
20.425	1.67969
20.43	1.50391
20.435	1.41602
20.44	1.24023
20.445	0.976562
20.45	0.888672
20.455	0.800781
20.46	0.537109
20.465	0.449219
20.47	0.361328
20.475	0.00976562
20.48	-0.078125
20.485	-0.341797
20.49	-0.517578
20.495	-0.605469
20.5	-0.78125
20.505	-0.869141
20.51	-0.957031
20.515	-1.39648
20.52	-1.48438
20.525	-1.57227
20.53	-1.92383
20.535	-2.01172
20.54	-2.09961
20.545	-2.27539
20.55	-2.36328
20.555	-2.45117
20.56	-2.80273
20.565	-2.89063
20.57	-3.1543
20.575	-3.1543
20.58	-3.33008
20.585	-3.50586
20.59	-3.59375
20.595	-3.68164
20.6	-3.85742
20.605	-3.94531
20.61	-4.0332
20.615	-4.20898
20.62	-4.29688
20.625	-4.29688
20.63	-4.56055
20.635	-4.56055
20.64	-4.64844
20.645	-4.82422
20.65	-4.82422
20.655	-4.91211
20.66	-5.08789
20.665	-5.08789
20.67	-5.17578
20.675	-5.26367
20.68	-5.35156
20.685	-5.35156
20.69	-5.52734
20.695	-5.52734
20.7	-5.70313
20.705	-5.70313
20.71	-5.79102
20.715	-5.79102
20.72	-5.87891
20.725	-5.87891
20.73	-5.9668
20.735	-5.9668
20.74	-6.05469
20.745	-6.05469
20.75	-6.05469
20.755	-6.14258
20.76	-6.14258
20.765	-6.14258
20.77	-6.23047
20.775	-6.23047
20.78	-6.23047
20.785	-6.31836
20.79	-6.31836
20.795	-6.31836
20.8	-6.31836
20.805	-6.31836
20.81	-6.31836
20.815	-6.40625
20.82	-6.40625
20.825	-6.40625
20.83	-6.40625
20.835	-6.49414
20.84	-6.49414
20.845	-6.49414
20.85	-6.49414
20.855	-6.49414
20.86	-6.49414
20.865	-6.49414
20.87	-6.49414
20.875	-6.49414
20.88	-6.49414
20.885	-6.58203
20.89	-6.58203
20.895	-6.58203
20.9	-6.58203
20.905	-6.58203
20.91	-6.58203
20.915	-6.66992
20.92	-6.66992
20.925	-6.66992
20.93	-6.66992
20.935	-6.66992
20.94	-6.66992
20.945	-6.75781
20.95	-6.75781
20.955	-6.75781
20.96	-6.75781
20.965	-6.8457
20.97	-6.8457
20.975	-6.8457
20.98	-6.93359
20.985	-6.93359
20.99	-6.93359
20.995	-6.93359
21	-7.02148
21.005	-7.02148
21.01	-7.02148
21.015	-7.02148
21.02	-7.10938
21.025	-7.10938
21.03	-7.10938
21.035	-7.19727
21.04	-7.19727
21.045	-7.19727
21.05	-7.19727
21.055	-7.28516
21.06	-7.28516
21.065	-7.28516
21.07	-7.28516
21.075	-7.37305
21.08	-7.37305
21.085	-7.37305
21.09	-7.37305
21.095	-7.37305
21.1	-7.46094
21.105	-7.46094
21.11	-7.54883
21.115	-7.54883
21.12	-7.54883
21.125	-7.63672
21.13	-7.63672
21.135	-7.63672
21.14	-7.63672
21.145	-7.63672
21.15	-7.72461
21.155	-7.72461
21.16	-7.72461
21.165	-7.72461
21.17	-7.8125
21.175	-7.8125
21.18	-7.8125
21.185	-7.8125
21.19	-7.8125
21.195	-7.90039
21.2	-7.90039
21.205	-7.98828
21.21	-7.98828
21.215	-7.98828
21.22	-7.98828
21.225	-7.98828
21.23	-8.07617
21.235	-8.07617
21.24	-8.07617
21.245	-8.07617
21.25	-8.07617
21.255	-8.16406
21.26	-8.16406
21.265	-8.16406
21.27	-8.16406
21.275	-8.25195
21.28	-8.25195
21.285	-8.25195
21.29	-8.25195
21.295	-8.25195
21.3	-8.33984
21.305	-8.33984
21.31	-8.33984
21.315	-8.33984
21.32	-8.33984
21.325	-8.33984
21.33	-8.42773
21.335	-8.42773
21.34	-8.42773
21.345	-8.42773
21.35	-8.42773
21.355	-8.42773
21.36	-8.42773
21.365	-8.51563
21.37	-8.51563
21.375	-8.51563
21.38	-8.51563
21.385	-8.51563
21.39	-8.51563
21.395	-8.51563
21.4	-8.51563
21.405	-8.60352
21.41	-8.60352
21.415	-8.60352
21.42	-8.60352
21.425	-8.60352
21.43	-8.60352
21.435	-8.60352
21.44	-8.69141
21.445	-8.69141
21.45	-8.69141
21.455	-8.69141
21.46	-8.69141
21.465	-8.69141
21.47	-8.69141
21.475	-8.69141
21.48	-8.69141
21.485	-8.69141
21.49	-8.7793
21.495	-8.7793
21.5	-8.7793
21.505	-8.7793
21.51	-8.7793
21.515	-8.7793
21.52	-8.7793
21.525	-8.7793
21.53	-8.7793
21.535	-8.7793
21.54	-8.86719
21.545	-8.86719
21.55	-8.86719
21.555	-8.86719
21.56	-8.86719
21.565	-8.86719
21.57	-8.86719
21.575	-8.86719
21.58	-8.86719
21.585	-8.86719
21.59	-8.86719
21.595	-8.95508
21.6	-8.95508
21.605	-8.95508
21.61	-8.95508
21.615	-8.95508
21.62	-8.95508
21.625	-8.95508
21.63	-8.95508
21.635	-8.95508
21.64	-8.95508
21.645	-9.04297
21.65	-9.04297
21.655	-9.04297
21.66	-9.04297
21.665	-9.04297
21.67	-9.04297
21.675	-9.04297
21.68	-9.04297
21.685	-9.04297
21.69	-9.04297
21.695	-9.04297
21.7	-9.04297
21.705	-9.04297
21.71	-9.13086
21.715	-9.13086
21.72	-9.13086
21.725	-9.13086
21.73	-9.13086
21.735	-9.13086
21.74	-9.13086
21.745	-9.13086
21.75	-9.13086
21.755	-9.13086
21.76	-9.13086
21.765	-9.21875
21.77	-9.21875
21.775	-9.21875
21.78	-9.21875
21.785	-9.21875
21.79	-9.21875
21.795	-9.21875
21.8	-9.21875
21.805	-9.21875
21.81	-9.21875
21.815	-9.21875
21.82	-9.30664
21.825	-9.30664
21.83	-9.30664
21.835	-9.30664
21.84	-9.30664
21.845	-9.30664
21.85	-9.30664
21.855	-9.30664
21.86	-9.30664
21.865	-9.30664
21.87	-9.30664
21.875	-9.30664
21.88	-9.30664
21.885	-9.30664
21.89	-9.30664
21.895	-9.30664
21.9	-9.30664
21.905	-9.30664
21.91	-9.30664
21.915	-9.30664
21.92	-9.30664
21.925	-9.30664
21.93	-9.30664
21.935	-9.30664
21.94	-9.30664
21.945	-9.30664
21.95	-9.30664
21.955	-9.30664
21.96	-9.39453
21.965	-9.39453
21.97	-9.39453
21.975	-9.39453
21.98	-9.39453
21.985	-9.39453
21.99	-9.39453
21.995	-9.39453
22	-9.39453
22.005	-9.39453
22.01	-9.39453
22.015	-9.39453
22.02	-9.39453
22.025	-9.39453
22.03	-9.39453
22.035	-9.39453
22.04	-9.39453
22.045	-9.39453
22.05	-9.39453
22.055	-9.39453
22.06	-9.39453
22.065	-9.39453
22.07	-9.39453
22.075	-9.39453
22.08	-9.39453
22.085	-9.39453
22.09	-9.39453
22.095	-9.39453
22.1	-9.39453
22.105	-9.39453
22.11	-9.39453
22.115	-9.39453
22.12	-9.39453
22.125	-9.39453
22.13	-9.39453
22.135	-9.48242
22.14	-9.48242
22.145	-9.48242
22.15	-9.48242
22.155	-9.48242
22.16	-9.48242
22.165	-9.48242
22.17	-9.48242
22.175	-9.48242
22.18	-9.48242
22.185	-9.48242
22.19	-9.48242
22.195	-9.48242
22.2	-9.48242
22.205	-9.48242
22.21	-9.48242
22.215	-9.48242
22.22	-9.48242
22.225	-9.48242
22.23	-9.48242
22.235	-9.48242
22.24	-9.48242
22.245	-9.48242
22.25	-9.48242
22.255	-9.48242
22.26	-9.48242
22.265	-9.48242
22.27	-9.48242
22.275	-9.48242
22.28	-9.48242
22.285	-9.48242
22.29	-9.48242
22.295	-9.48242
22.3	-9.48242
22.305	-9.48242
22.31	-9.48242
22.315	-9.48242
22.32	-9.48242
22.325	-9.48242
22.33	-9.48242
22.335	-9.57031
22.34	-9.57031
22.345	-9.57031
22.35	-9.57031
22.355	-9.57031
22.36	-9.57031
22.365	-9.57031
22.37	-9.57031
22.375	-9.57031
22.38	-9.57031
22.385	-9.57031
22.39	-9.57031
22.395	-9.57031
22.4	-9.57031
22.405	-9.57031
22.41	-9.57031
22.415	-9.57031
22.42	-9.57031
22.425	-9.57031
22.43	-9.57031
22.435	-9.57031
22.44	-9.57031
22.445	-9.57031
22.45	-9.57031
22.455	-9.57031
22.46	-9.57031
22.465	-9.57031
22.47	-9.57031
22.475	-9.57031
22.48	-9.57031
22.485	-9.57031
22.49	-9.57031
22.495	-9.57031
22.5	-9.57031
22.505	-9.57031
22.51	-9.57031
22.515	-9.57031
22.52	-9.57031
22.525	-9.57031
22.53	-9.57031
22.535	-9.57031
22.54	-9.57031
22.545	-9.57031
22.55	-9.57031
22.555	-9.57031
22.56	-9.57031
22.565	-9.57031
22.57	-9.57031
22.575	-9.57031
22.58	-9.57031
22.585	-9.57031
22.59	-9.57031
22.595	-9.57031
22.6	-9.6582
22.605	-9.6582
22.61	-9.6582
22.615	-9.6582
22.62	-9.6582
22.625	-9.6582
22.63	-9.6582
22.635	-9.6582
22.64	-9.6582
22.645	-9.6582
22.65	-9.6582
22.655	-9.6582
22.66	-9.6582
22.665	-9.6582
22.67	-9.6582
22.675	-9.6582
22.68	-9.6582
22.685	-9.6582
22.69	-9.6582
22.695	-9.6582
22.7	-9.6582
22.705	-9.6582
22.71	-9.6582
22.715	-9.6582
22.72	-9.6582
22.725	-9.6582
22.73	-9.6582
22.735	-9.6582
22.74	-9.6582
22.745	-9.6582
22.75	-9.6582
22.755	-9.6582
22.76	-9.6582
22.765	-9.6582
22.77	-9.6582
22.775	-9.6582
22.78	-9.6582
22.785	-9.6582
22.79	-9.6582
22.795	-9.6582
22.8	-9.6582
22.805	-9.6582
22.81	-9.6582
22.815	-9.6582
22.82	-9.6582
22.825	-9.6582
22.83	-9.6582
22.835	-9.6582
22.84	-9.6582
22.845	-9.6582
22.85	-9.6582
22.855	-9.6582
22.86	-9.6582
22.865	-9.6582
22.87	-9.6582
22.875	-9.6582
22.88	-9.6582
22.885	-9.6582
22.89	-9.6582
22.895	-9.6582
22.9	-9.6582
22.905	-9.6582
22.91	-9.6582
22.915	-9.6582
22.92	-9.6582
22.925	-9.6582
22.93	-9.6582
22.935	-9.6582
22.94	-9.6582
22.945	-9.6582
22.95	-9.6582
22.955	-9.6582
22.96	-9.6582
22.965	-9.6582
22.97	-9.6582
22.975	-9.6582
22.98	-9.6582
22.985	-9.6582
22.99	-9.6582
22.995	-9.6582
23	-9.6582
23.005	-9.6582
23.01	-9.6582
23.015	-9.6582
23.02	-9.6582
23.025	-9.6582
23.03	-9.6582
23.035	-9.6582
23.04	-9.6582
23.045	-9.6582
23.05	-9.6582
23.055	-9.6582
23.06	-9.6582
23.065	-9.6582
23.07	-9.6582
23.075	-9.6582
23.08	-9.6582
23.085	-9.6582
23.09	-9.6582
23.095	-9.6582
23.1	-9.6582
23.105	-9.6582
23.11	-9.6582
23.115	-9.6582
23.12	-9.6582
23.125	-9.6582
23.13	-9.6582
23.135	-9.6582
23.14	-9.6582
23.145	-9.6582
23.15	-9.6582
23.155	-9.6582
23.16	-9.6582
23.165	-9.6582
23.17	-9.6582
23.175	-9.6582
23.18	-9.6582
23.185	-9.6582
23.19	-9.6582
23.195	-9.6582
23.2	-9.6582
23.205	-9.6582
23.21	-9.6582
23.215	-9.6582
23.22	-9.6582
23.225	-9.6582
23.23	-9.6582
23.235	-9.6582
23.24	-9.6582
23.245	-9.6582
23.25	-9.6582
23.255	-9.6582
23.26	-9.6582
23.265	-9.6582
23.27	-9.6582
23.275	-9.6582
23.28	-9.6582
23.285	-9.6582
23.29	-9.6582
23.295	-9.6582
23.3	-9.6582
23.305	-9.6582
23.31	-9.6582
23.315	-9.6582
23.32	-9.6582
23.325	-9.6582
23.33	-9.6582
23.335	-9.6582
23.34	-9.6582
23.345	-9.6582
23.35	-9.6582
23.355	-9.6582
23.36	-9.6582
23.365	-9.6582
23.37	-9.6582
23.375	-9.6582
23.38	-9.6582
23.385	-9.6582
23.39	-9.6582
23.395	-9.6582
23.4	-9.6582
23.405	-9.6582
23.41	-9.6582
23.415	-9.6582
23.42	-9.6582
23.425	-9.6582
23.43	-9.6582
23.435	-9.6582
23.44	-9.6582
23.445	-9.6582
23.45	-9.6582
23.455	-9.6582
23.46	-9.6582
23.465	-9.6582
23.47	-9.6582
23.475	-9.6582
23.48	-9.6582
23.485	-9.6582
23.49	-9.6582
23.495	-9.6582
23.5	-9.6582
23.505	-9.6582
23.51	-9.6582
23.515	-9.6582
23.52	-9.6582
23.525	-9.6582
23.53	-9.6582
23.535	-9.6582
23.54	-9.6582
23.545	-9.6582
23.55	-9.6582
23.555	-9.6582
23.56	-9.6582
23.565	-9.6582
23.57	-9.6582
23.575	-9.6582
23.58	-9.6582
23.585	-9.6582
23.59	-9.6582
23.595	-9.74609
23.6	-9.74609
23.605	-9.74609
23.61	-9.74609
23.615	-9.74609
23.62	-9.74609
23.625	-9.74609
23.63	-9.74609
23.635	-9.74609
23.64	-9.74609
23.645	-9.74609
23.65	-9.74609
23.655	-9.74609
23.66	-9.74609
23.665	-9.74609
23.67	-9.74609
23.675	-9.74609
23.68	-9.74609
23.685	-9.74609
23.69	-9.74609
23.695	-9.74609
23.7	-9.74609
23.705	-9.74609
23.71	-9.74609
23.715	-9.74609
23.72	-9.74609
23.725	-9.74609
23.73	-9.74609
23.735	-9.74609
23.74	-9.74609
23.745	-9.74609
23.75	-9.74609
23.755	-9.74609
23.76	-9.74609
23.765	-9.74609
23.77	-9.74609
23.775	-9.74609
23.78	-9.74609
23.785	-9.74609
23.79	-9.74609
23.795	-9.74609
23.8	-9.74609
23.805	-9.74609
23.81	-9.74609
23.815	-9.74609
23.82	-9.74609
23.825	-9.74609
23.83	-9.74609
23.835	-9.74609
23.84	-9.74609
23.845	-9.74609
23.85	-9.74609
23.855	-9.74609
23.86	-9.74609
23.865	-9.74609
23.87	-9.74609
23.875	-9.74609
23.88	-9.74609
23.885	-9.74609
23.89	-9.74609
23.895	-9.74609
23.9	-9.74609
23.905	-9.74609
23.91	-9.74609
23.915	-9.74609
23.92	-9.74609
23.925	-9.74609
23.93	-9.74609
23.935	-9.74609
23.94	-9.74609
23.945	-9.74609
23.95	-9.74609
23.955	-9.74609
23.96	-9.74609
23.965	-9.74609
23.97	-9.74609
23.975	-9.74609
23.98	-9.74609
23.985	-9.74609
23.99	-9.74609
23.995	-9.74609
24	-9.74609
24.005	-9.74609
24.01	-9.74609
24.015	-9.74609
24.02	-9.74609
24.025	-9.74609
24.03	-9.74609
24.035	-9.74609
24.04	-9.74609
24.045	-9.74609
24.05	-9.74609
24.055	-9.74609
24.06	-9.74609
24.065	-9.74609
24.07	-9.74609
24.075	-9.74609
24.08	-9.74609
24.085	-9.74609
24.09	-9.74609
24.095	-9.74609
24.1	-9.74609
24.105	-9.74609
24.11	-9.74609
24.115	-9.74609
24.12	-9.74609
24.125	-9.74609
24.13	-9.74609
24.135	-9.74609
24.14	-9.74609
24.145	-9.74609
24.15	-9.74609
24.155	-9.74609
24.16	-9.74609
24.165	-9.74609
24.17	-9.74609
24.175	-9.74609
24.18	-9.74609
24.185	-9.74609
24.19	-9.74609
24.195	-9.74609
24.2	-9.74609
24.205	-9.74609
24.21	-9.74609
24.215	-9.74609
24.22	-9.74609
24.225	-9.74609
24.23	-9.74609
24.235	-9.74609
24.24	-9.74609
24.245	-9.74609
24.25	-9.74609
24.255	-9.74609
24.26	-9.74609
24.265	-9.74609
24.27	-9.74609
24.275	-9.74609
24.28	-9.74609
24.285	-9.74609
24.29	-9.74609
24.295	-9.74609
24.3	-9.74609
24.305	-9.74609
24.31	-9.74609
24.315	-9.74609
24.32	-9.74609
24.325	-9.74609
24.33	-9.74609
24.335	-9.74609
24.34	-9.74609
24.345	-9.74609
24.35	-9.74609
24.355	-9.74609
24.36	-9.74609
24.365	-9.74609
24.37	-9.74609
24.375	-9.74609
24.38	-9.74609
24.385	-9.74609
24.39	-9.74609
24.395	-9.74609
24.4	-9.74609
24.405	-9.74609
24.41	-9.83398
24.415	-9.83398
24.42	-9.83398
24.425	-9.83398
24.43	-9.83398
24.435	-9.83398
24.44	-9.83398
24.445	-9.83398
24.45	-9.83398
24.455	-9.83398
24.46	-9.83398
24.465	-9.83398
24.47	-9.83398
24.475	-9.83398
24.48	-9.83398
24.485	-9.83398
24.49	-9.83398
24.495	-9.83398
24.5	-9.83398
24.505	-9.83398
24.51	-9.83398
24.515	-9.83398
24.52	-9.83398
24.525	-9.83398
24.53	-9.83398
24.535	-9.83398
24.54	-9.83398
24.545	-9.83398
24.55	-9.83398
24.555	-9.83398
24.56	-9.83398
24.565	-9.83398
24.57	-9.83398
24.575	-9.83398
24.58	-9.83398
24.585	-9.83398
24.59	-9.83398
24.595	-9.83398
24.6	-9.83398
24.605	-9.83398
24.61	-9.83398
24.615	-9.83398
24.62	-9.83398
24.625	-9.83398
24.63	-9.83398
24.635	-9.83398
24.64	-9.83398
24.645	-9.83398
24.65	-9.83398
24.655	-9.83398
24.66	-9.83398
24.665	-9.83398
24.67	-9.83398
24.675	-9.83398
24.68	-9.83398
24.685	-9.83398
24.69	-9.83398
24.695	-9.74609
24.7	-9.74609
24.705	-9.74609
24.71	-9.74609
24.715	-9.74609
24.72	-9.74609
24.725	-9.74609
24.73	-9.74609
24.735	-9.74609
24.74	-9.74609
24.745	-9.74609
24.75	-9.74609
24.755	-9.74609
24.76	-9.74609
24.765	-9.74609
24.77	-9.74609
24.775	-9.74609
24.78	-9.74609
24.785	-9.74609
24.79	-9.74609
24.795	-9.74609
24.8	-9.74609
24.805	-9.74609
24.81	-9.74609
24.815	-9.74609
24.82	-9.74609
24.825	-9.74609
24.83	-9.74609
24.835	-9.74609
24.84	-9.74609
24.845	-9.74609
24.85	-9.74609
24.855	-9.74609
24.86	-9.74609
24.865	-9.74609
24.87	-9.74609
24.875	-9.74609
24.88	-9.74609
24.885	-9.74609
24.89	-9.74609
24.895	-9.74609
24.9	-9.83398
24.905	-9.83398
24.91	-9.83398
24.915	-9.83398
24.92	-9.83398
24.925	-9.83398
24.93	-9.83398
24.935	-9.83398
24.94	-9.83398
24.945	-9.83398
24.95	-9.83398
24.955	-9.83398
24.96	-9.83398
24.965	-9.83398
24.97	-9.83398
24.975	-9.83398
24.98	-9.83398
24.985	-9.83398
24.99	-9.83398
24.995	-9.83398
25	-9.83398
25.005	-9.83398
25.01	-9.83398
25.015	-9.83398
25.02	-9.83398
25.025	-9.83398
25.03	-9.83398
25.035	-9.83398
25.04	-9.83398
25.045	-9.83398
25.05	-9.83398
25.055	-9.83398
25.06	-9.83398
25.065	-9.83398
25.07	-9.74609
25.075	-9.74609
25.08	-9.74609
25.085	-9.74609
25.09	-9.74609
25.095	-9.74609
25.1	-9.74609
25.105	-9.74609
25.11	-9.6582
25.115	-9.6582
25.12	-9.6582
25.125	-9.6582
25.13	-9.6582
25.135	-9.57031
25.14	-9.57031
25.145	-9.48242
25.15	-9.48242
25.155	-9.39453
25.16	-9.39453
25.165	-9.30664
25.17	-9.30664
25.175	-9.21875
25.18	-9.13086
25.185	-9.13086
25.19	-9.04297
25.195	-8.95508
25.2	-8.95508
25.205	-8.86719
25.21	-8.7793
25.215	-8.69141
25.22	-8.60352
25.225	-8.42773
25.23	-8.42773
25.235	-8.25195
25.24	-8.16406
25.245	-8.07617
25.25	-7.90039
25.255	-7.90039
25.26	-7.8125
25.265	-7.63672
25.27	-7.54883
25.275	-7.46094
25.28	-7.19727
25.285	-7.10938
25.29	-7.02148
25.295	-6.75781
25.3	-6.66992
25.305	-6.49414
25.31	-6.14258
25.315	-6.05469
25.32	-5.87891
25.325	-5.61523
25.33	-5.52734
25.335	-5.35156
25.34	-5.17578
25.345	-5.08789
25.35	-4.91211
25.355	-4.56055
25.36	-4.47266
25.365	-4.12109
25.37	-4.0332
25.375	-3.68164
25.38	-3.59375
25.385	-3.50586
25.39	-3.1543
25.395	-3.06641
25.4	-2.97852
25.405	-2.71484
25.41	-2.62695
25.415	-2.53906
25.42	-2.27539
25.425	-2.1875
25.43	-2.09961
25.435	-1.74805
25.44	-1.66016
25.445	-1.57227
25.45	-1.39648
25.455	-1.2207
25.46	-1.13281
25.465	-0.957031
25.47	-0.869141
25.475	-0.78125
25.48	-0.429688
25.485	-0.341797
25.49	-0.253906
25.495	-0.078125
25.5	0.00976562
25.505	0.0976562
25.51	0.361328
25.515	0.449219
25.52	0.712891
25.525	0.800781
25.53	1.06445
25.535	1.15234
25.54	1.24023
25.545	1.41602
25.55	1.50391
25.555	1.5918
25.56	1.85547
25.565	1.94336
25.57	2.03125
25.575	2.20703
25.58	2.29492
25.585	2.55859
25.59	2.55859
25.595	2.82227
25.6	2.91016
25.605	2.91016
25.61	3.17383
25.615	3.17383
25.62	3.26172
25.625	3.52539
25.63	3.52539
25.635	3.61328
25.64	3.70117
25.645	3.78906
25.65	3.87695
25.655	3.96484
25.66	4.05273
25.665	4.05273
25.67	4.14063
25.675	4.22852
25.68	4.31641
25.685	4.4043
25.69	4.49219
25.695	4.49219
25.7	4.58008
25.705	4.58008
25.71	4.66797
25.715	4.66797
25.72	4.75586
25.725	4.75586
25.73	4.93164
25.735	4.93164
25.74	5.01953
25.745	5.01953
25.75	5.10742
25.755	5.19531
25.76	5.19531
25.765	5.2832
25.77	5.2832
25.775	5.37109
25.78	5.37109
25.785	5.45898
25.79	5.45898
25.795	5.54688
25.8	5.54688
25.805	5.54688
25.81	5.63477
25.815	5.63477
25.82	5.63477
25.825	5.72266
25.83	5.72266
25.835	5.72266
25.84	5.81055
25.845	5.81055
25.85	5.89844
25.855	5.89844
25.86	5.98633
25.865	5.98633
25.87	6.07422
25.875	6.07422
25.88	6.07422
25.885	6.07422
25.89	6.16211
25.895	6.16211
25.9	6.16211
25.905	6.25
25.91	6.25
25.915	6.33789
25.92	6.33789
25.925	6.33789
25.93	6.42578
25.935	6.42578
25.94	6.42578
25.945	6.51367
25.95	6.51367
25.955	6.60156
25.96	6.60156
25.965	6.60156
25.97	6.68945
25.975	6.68945
25.98	6.68945
25.985	6.77734
25.99	6.77734
25.995	6.77734
26	6.86523
26.005	6.86523
26.01	6.86523
26.015	6.95312
26.02	6.95312
26.025	6.95312
26.03	7.04102
26.035	7.04102
26.04	7.12891
26.045	7.12891
26.05	7.12891
26.055	7.2168
26.06	7.2168
26.065	7.2168
26.07	7.30469
26.075	7.30469
26.08	7.30469
26.085	7.39258
26.09	7.39258
26.095	7.39258
26.1	7.39258
26.105	7.39258
26.11	7.48047
26.115	7.48047
26.12	7.48047
26.125	7.56836
26.13	7.56836
26.135	7.56836
26.14	7.56836
26.145	7.65625
26.15	7.65625
26.155	7.65625
26.16	7.74414
26.165	7.74414
26.17	7.74414
26.175	7.74414
26.18	7.74414
26.185	7.83203
26.19	7.83203
26.195	7.83203
26.2	7.83203
26.205	7.83203
26.21	7.83203
26.215	7.91992
26.22	7.91992
26.225	7.91992
26.23	7.91992
26.235	7.91992
26.24	8.00781
26.245	8.00781
26.25	8.00781
26.255	8.00781
26.26	8.00781
26.265	8.00781
26.27	8.0957
26.275	8.0957
26.28	8.0957
26.285	8.18359
26.29	8.18359
26.295	8.18359
26.3	8.18359
26.305	8.18359
26.31	8.27148
26.315	8.27148
26.32	8.27148
26.325	8.27148
26.33	8.27148
26.335	8.27148
26.34	8.35937
26.345	8.35937
26.35	8.35937
26.355	8.35937
26.36	8.44727
26.365	8.44727
26.37	8.44727
26.375	8.44727
26.38	8.44727
26.385	8.44727
26.39	8.53516
26.395	8.53516
26.4	8.53516
26.405	8.53516
26.41	8.53516
26.415	8.53516
26.42	8.62305
26.425	8.62305
26.43	8.62305
26.435	8.62305
26.44	8.62305
26.445	8.62305
26.45	8.62305
26.455	8.62305
26.46	8.71094
26.465	8.71094
26.47	8.71094
26.475	8.71094
26.48	8.71094
26.485	8.71094
26.49	8.79883
26.495	8.79883
26.5	8.79883
26.505	8.79883
26.51	8.79883
26.515	8.79883
26.52	8.88672
26.525	8.88672
26.53	8.88672
26.535	8.88672
26.54	8.88672
26.545	8.97461
26.55	8.97461
26.555	8.97461
26.56	8.97461
26.565	8.97461
26.57	8.97461
26.575	8.97461
26.58	8.97461
26.585	8.97461
26.59	9.0625
26.595	9.0625
26.6	9.0625
26.605	9.0625
26.61	9.0625
26.615	9.0625
26.62	9.15039
26.625	9.15039
26.63	9.15039
26.635	9.15039
26.64	9.15039
26.645	9.15039
26.65	9.15039
26.655	9.23828
26.66	9.23828
26.665	9.23828
26.67	9.23828
26.675	9.23828
26.68	9.23828
26.685	9.23828
26.69	9.23828
26.695	9.23828
26.7	9.23828
26.705	9.23828
26.71	9.23828
26.715	9.32617
26.72	9.32617
26.725	9.32617
26.73	9.32617
26.735	9.32617
26.74	9.32617
26.745	9.32617
26.75	9.32617
26.755	9.32617
26.76	9.41406
26.765	9.41406
26.77	9.41406
26.775	9.41406
26.78	9.41406
26.785	9.41406
26.79	9.41406
26.795	9.41406
26.8	9.41406
26.805	9.41406
26.81	9.41406
26.815	9.41406
26.82	9.50195
26.825	9.50195
26.83	9.50195
26.835	9.50195
26.84	9.50195
26.845	9.50195
26.85	9.50195
26.855	9.50195
26.86	9.50195
26.865	9.50195
26.87	9.50195
26.875	9.50195
26.88	9.50195
26.885	9.50195
26.89	9.50195
26.895	9.50195
26.9	9.50195
26.905	9.50195
26.91	9.50195
26.915	9.50195
26.92	9.58984
26.925	9.58984
26.93	9.58984
26.935	9.58984
26.94	9.58984
26.945	9.58984
26.95	9.58984
26.955	9.58984
26.96	9.58984
26.965	9.58984
26.97	9.58984
26.975	9.58984
26.98	9.58984
26.985	9.58984
26.99	9.58984
26.995	9.58984
27	9.58984
27.005	9.58984
27.01	9.58984
27.015	9.58984
27.02	9.58984
27.025	9.58984
27.03	9.58984
27.035	9.58984
27.04	9.58984
27.045	9.58984
27.05	9.58984
27.055	9.58984
27.06	9.58984
27.065	9.58984
27.07	9.58984
27.075	9.58984
27.08	9.58984
27.085	9.67773
27.09	9.67773
27.095	9.67773
27.1	9.67773
27.105	9.67773
27.11	9.67773
27.115	9.67773
27.12	9.67773
27.125	9.67773
27.13	9.67773
27.135	9.67773
27.14	9.67773
27.145	9.67773
27.15	9.67773
27.155	9.67773
27.16	9.67773
27.165	9.67773
27.17	9.67773
27.175	9.67773
27.18	9.67773
27.185	9.67773
27.19	9.67773
27.195	9.67773
27.2	9.67773
27.205	9.67773
27.21	9.67773
27.215	9.67773
27.22	9.67773
27.225	9.67773
27.23	9.67773
27.235	9.67773
27.24	9.67773
27.245	9.67773
27.25	9.67773
27.255	9.67773
27.26	9.67773
27.265	9.67773
27.27	9.67773
27.275	9.67773
27.28	9.67773
27.285	9.67773
27.29	9.67773
27.295	9.67773
27.3	9.67773
27.305	9.67773
27.31	9.67773
27.315	9.67773
27.32	9.67773
27.325	9.67773
27.33	9.67773
27.335	9.76563
27.34	9.76563
27.345	9.76563
27.35	9.76563
27.355	9.76563
27.36	9.76563
27.365	9.76563
27.37	9.76563
27.375	9.76563
27.38	9.76563
27.385	9.76563
27.39	9.76563
27.395	9.76563
27.4	9.76563
27.405	9.76563
27.41	9.76563
27.415	9.76563
27.42	9.76563
27.425	9.76563
27.43	9.76563
27.435	9.76563
27.44	9.76563
27.445	9.76563
27.45	9.76563
27.455	9.76563
27.46	9.76563
27.465	9.76563
27.47	9.76563
27.475	9.76563
27.48	9.76563
27.485	9.76563
27.49	9.85352
27.495	9.85352
27.5	9.85352
27.505	9.85352
27.51	9.85352
27.515	9.85352
27.52	9.85352
27.525	9.85352
27.53	9.85352
27.535	9.85352
27.54	9.85352
27.545	9.85352
27.55	9.85352
27.555	9.85352
27.56	9.85352
27.565	9.85352
27.57	9.85352
27.575	9.85352
27.58	9.85352
27.585	9.85352
27.59	9.85352
27.595	9.85352
27.6	9.85352
27.605	9.85352
27.61	9.85352
27.615	9.85352
27.62	9.85352
27.625	9.85352
27.63	9.85352
27.635	9.85352
27.64	9.85352
27.645	9.85352
27.65	9.85352
27.655	9.85352
27.66	9.85352
27.665	9.85352
27.67	9.85352
27.675	9.85352
27.68	9.85352
27.685	9.85352
27.69	9.85352
27.695	9.85352
27.7	9.85352
27.705	9.85352
27.71	9.85352
27.715	9.85352
27.72	9.85352
27.725	9.85352
27.73	9.85352
27.735	9.85352
27.74	9.85352
27.745	9.85352
27.75	9.85352
27.755	9.85352
27.76	9.85352
27.765	9.85352
27.77	9.85352
27.775	9.85352
27.78	9.85352
27.785	9.85352
27.79	9.85352
27.795	9.85352
27.8	9.94141
27.805	9.94141
27.81	9.94141
27.815	9.94141
27.82	9.94141
27.825	9.94141
27.83	9.94141
27.835	9.94141
27.84	9.94141
27.845	9.94141
27.85	9.94141
27.855	9.94141
27.86	9.94141
27.865	9.94141
27.87	9.94141
27.875	9.94141
27.88	9.94141
27.885	9.94141
27.89	9.94141
27.895	9.94141
27.9	9.94141
27.905	9.94141
27.91	9.94141
27.915	9.94141
27.92	9.94141
27.925	9.94141
27.93	9.94141
27.935	9.94141
27.94	9.94141
27.945	9.94141
27.95	9.94141
27.955	9.94141
27.96	9.94141
27.965	9.94141
27.97	9.94141
27.975	9.94141
27.98	9.94141
27.985	9.94141
27.99	9.94141
27.995	9.94141
28	9.94141
28.005	9.94141
28.01	9.94141
28.015	9.94141
28.02	9.94141
28.025	9.94141
28.03	9.94141
28.035	9.94141
28.04	9.94141
28.045	9.94141
28.05	9.94141
28.055	9.94141
28.06	9.94141
28.065	9.94141
28.07	9.94141
28.075	9.94141
28.08	9.94141
28.085	9.94141
28.09	9.94141
28.095	9.94141
28.1	9.94141
28.105	9.94141
28.11	9.94141
28.115	9.94141
28.12	9.94141
28.125	9.85352
28.13	9.85352
28.135	9.85352
28.14	9.85352
28.145	9.85352
28.15	9.85352
28.155	9.85352
28.16	9.85352
28.165	9.85352
28.17	9.85352
28.175	9.85352
28.18	9.85352
28.185	9.85352
28.19	9.85352
28.195	9.85352
28.2	9.85352
28.205	9.85352
28.21	9.85352
28.215	9.85352
28.22	9.85352
28.225	9.85352
28.23	9.85352
28.235	9.85352
28.24	9.85352
28.245	9.85352
28.25	9.85352
28.255	9.85352
28.26	9.85352
28.265	9.94141
28.27	9.94141
28.275	9.94141
28.28	9.94141
28.285	9.94141
28.29	9.94141
28.295	9.94141
28.3	9.94141
28.305	9.94141
28.31	9.94141
28.315	9.94141
28.32	9.94141
28.325	9.94141
28.33	9.94141
28.335	9.94141
28.34	9.94141
28.345	9.94141
28.35	9.94141
28.355	9.94141
28.36	9.94141
28.365	9.94141
28.37	9.94141
28.375	9.94141
28.38	9.94141
28.385	9.94141
28.39	9.94141
28.395	9.94141
28.4	9.94141
28.405	9.94141
28.41	9.94141
28.415	9.94141
28.42	9.94141
28.425	9.94141
28.43	9.94141
28.435	9.94141
28.44	9.94141
28.445	9.94141
28.45	9.94141
28.455	9.94141
28.46	9.94141
28.465	9.94141
28.47	9.94141
28.475	9.94141
28.48	9.94141
28.485	9.94141
28.49	9.94141
28.495	9.94141
28.5	9.94141
28.505	9.94141
28.51	9.94141
28.515	9.94141
28.52	9.94141
28.525	9.94141
28.53	9.94141
28.535	9.94141
28.54	9.94141
28.545	9.94141
28.55	9.94141
28.555	9.94141
28.56	9.94141
28.565	9.94141
28.57	9.94141
28.575	9.94141
28.58	9.94141
28.585	9.94141
28.59	9.94141
28.595	9.94141
28.6	9.94141
28.605	9.94141
28.61	9.94141
28.615	9.94141
28.62	9.94141
28.625	9.94141
28.63	9.94141
28.635	10.0293
28.64	10.0293
28.645	10.0293
28.65	10.0293
28.655	10.0293
28.66	10.0293
28.665	10.0293
28.67	10.0293
28.675	10.0293
28.68	10.0293
28.685	10.0293
28.69	10.0293
28.695	10.0293
28.7	10.0293
28.705	10.0293
28.71	10.0293
28.715	10.0293
28.72	10.0293
28.725	10.0293
28.73	10.0293
28.735	10.0293
28.74	10.0293
28.745	10.0293
28.75	10.0293
28.755	10.0293
28.76	10.0293
28.765	10.0293
28.77	10.0293
28.775	10.0293
28.78	10.0293
28.785	10.0293
28.79	10.0293
28.795	10.0293
28.8	10.0293
28.805	10.0293
28.81	10.0293
28.815	10.0293
28.82	10.0293
28.825	10.0293
28.83	10.0293
28.835	10.0293
28.84	10.0293
28.845	10.0293
28.85	10.0293
28.855	10.0293
28.86	10.0293
28.865	10.0293
28.87	9.94141
28.875	9.94141
28.88	9.94141
28.885	9.94141
28.89	9.94141
28.895	9.94141
28.9	9.94141
28.905	9.94141
28.91	9.94141
28.915	9.94141
28.92	9.94141
28.925	9.94141
28.93	9.94141
28.935	9.94141
28.94	9.94141
28.945	9.94141
28.95	9.94141
28.955	9.94141
28.96	9.94141
28.965	9.94141
28.97	9.94141
28.975	9.94141
28.98	9.94141
28.985	9.94141
28.99	9.94141
28.995	9.94141
29	9.94141
29.005	9.94141
29.01	9.94141
29.015	9.94141
29.02	9.94141
29.025	9.94141
29.03	9.94141
29.035	9.94141
29.04	9.94141
29.045	9.94141
29.05	9.94141
29.055	9.94141
29.06	9.94141
29.065	9.94141
29.07	9.94141
29.075	9.94141
29.08	9.94141
29.085	9.94141
29.09	9.94141
29.095	9.94141
29.1	9.94141
29.105	9.94141
29.11	9.94141
29.115	9.94141
29.12	9.94141
29.125	9.94141
29.13	9.94141
29.135	9.94141
29.14	9.94141
29.145	9.94141
29.15	9.94141
29.155	9.94141
29.16	9.94141
29.165	9.94141
29.17	9.94141
29.175	9.94141
29.18	9.94141
29.185	9.94141
29.19	9.94141
29.195	9.94141
29.2	9.94141
29.205	9.94141
29.21	9.94141
29.215	9.94141
29.22	9.94141
29.225	9.94141
29.23	9.94141
29.235	9.94141
29.24	9.94141
29.245	9.94141
29.25	9.94141
29.255	9.94141
29.26	9.94141
29.265	9.94141
29.27	9.94141
29.275	9.94141
29.28	9.94141
29.285	9.94141
29.29	9.94141
29.295	9.94141
29.3	9.94141
29.305	9.94141
29.31	9.94141
29.315	9.94141
29.32	9.94141
29.325	9.94141
29.33	9.94141
29.335	9.94141
29.34	9.94141
29.345	9.94141
29.35	9.94141
29.355	9.94141
29.36	9.94141
29.365	9.94141
29.37	9.94141
29.375	9.94141
29.38	9.94141
29.385	9.94141
29.39	9.94141
29.395	9.94141
29.4	9.94141
29.405	9.94141
29.41	9.94141
29.415	9.94141
29.42	9.94141
29.425	9.94141
29.43	9.94141
29.435	9.94141
29.44	9.94141
29.445	9.94141
29.45	9.94141
29.455	9.94141
29.46	9.94141
29.465	9.94141
29.47	9.94141
29.475	9.94141
29.48	9.94141
29.485	9.94141
29.49	9.94141
29.495	9.94141
29.5	9.94141
29.505	9.94141
29.51	9.94141
29.515	9.94141
29.52	9.94141
29.525	9.94141
29.53	9.94141
29.535	9.94141
29.54	9.94141
29.545	9.94141
29.55	9.94141
29.555	9.94141
29.56	9.94141
29.565	9.94141
29.57	9.94141
29.575	9.94141
29.58	9.94141
29.585	9.94141
29.59	9.94141
29.595	9.94141
29.6	9.94141
29.605	9.94141
29.61	9.94141
29.615	9.94141
29.62	9.94141
29.625	9.94141
29.63	9.94141
29.635	9.94141
29.64	9.94141
29.645	9.94141
29.65	9.94141
29.655	9.94141
29.66	9.94141
29.665	9.94141
29.67	9.94141
29.675	9.94141
29.68	9.94141
29.685	9.94141
29.69	9.94141
29.695	9.94141
29.7	9.94141
29.705	9.94141
29.71	9.94141
29.715	9.94141
29.72	9.94141
29.725	9.94141
29.73	9.94141
29.735	9.94141
29.74	9.94141
29.745	9.94141
29.75	9.94141
29.755	9.94141
29.76	9.94141
29.765	9.94141
29.77	9.94141
29.775	9.94141
29.78	9.94141
29.785	9.94141
29.79	9.94141
29.795	9.94141
29.8	9.94141
29.805	9.94141
29.81	9.94141
29.815	9.94141
29.82	9.94141
29.825	9.94141
29.83	9.94141
29.835	9.94141
29.84	9.94141
29.845	9.94141
29.85	9.94141
29.855	9.94141
29.86	9.94141
29.865	9.94141
29.87	9.94141
29.875	9.94141
29.88	9.94141
29.885	9.94141
29.89	9.94141
29.895	9.94141
29.9	9.94141
29.905	9.94141
29.91	9.94141
29.915	9.94141
29.92	9.94141
29.925	9.94141
29.93	9.94141
29.935	9.94141
29.94	9.94141
29.945	9.94141
29.95	9.94141
29.955	9.94141
29.96	9.94141
29.965	9.94141
29.97	9.94141
29.975	9.94141
29.98	9.94141
29.985	9.94141
29.99	9.94141
29.995	9.94141
30	9.94141
30.005	9.94141
30.01	9.94141
30.015	9.94141
30.02	9.94141
30.025	9.94141
30.03	9.94141
30.035	9.94141
30.04	9.94141
30.045	9.94141
30.05	9.94141
30.055	9.94141
30.06	9.94141
30.065	9.94141
30.07	9.85352
30.075	9.85352
30.08	9.76563
30.085	9.76563
30.09	9.76563
30.095	9.76563
30.1	9.67773
30.105	9.67773
30.11	9.58984
30.115	9.58984
30.12	9.50195
30.125	9.50195
30.13	9.41406
30.135	9.41406
30.14	9.32617
30.145	9.32617
30.15	9.23828
30.155	9.15039
30.16	9.15039
30.165	9.0625
30.17	8.88672
30.175	8.88672
30.18	8.79883
30.185	8.62305
30.19	8.62305
30.195	8.53516
30.2	8.44727
30.205	8.35937
30.21	8.27148
30.215	8.18359
30.22	8.0957
30.225	8.00781
30.23	7.74414
30.235	7.65625
30.24	7.56836
30.245	7.39258
30.25	7.30469
30.255	7.2168
30.26	7.04102
30.265	6.95312
30.27	6.86523
30.275	6.60156
30.28	6.51367
30.285	6.16211
30.29	6.07422
30.295	5.98633
30.3	5.81055
30.305	5.72266
30.31	5.63477
30.315	5.2832
30.32	5.19531
30.325	5.10742
30.33	4.84375
30.335	4.66797
30.34	4.58008
30.345	4.22852
30.35	4.05273
30.355	3.61328
30.36	3.4375
30.365	3.08594
30.37	2.99805
30.375	2.82227
30.38	2.64648
30.385	2.55859
30.39	2.4707
30.395	2.20703
30.4	2.03125
30.405	1.76758
30.41	1.67969
30.415	1.5918
30.42	1.32812
30.425	1.15234
30.43	1.15234
30.435	0.888672
30.44	0.800781
30.445	0.712891
30.45	0.449219
30.455	0.361328
30.46	0.273438
30.465	0.0976562
30.47	0.00976562
30.475	-0.078125
30.48	-0.429688
30.485	-0.517578
30.49	-0.869141
30.495	-0.957031
30.5	-0.957031
30.505	-1.2207
30.51	-1.30859
30.515	-1.39648
30.52	-1.66016
30.525	-1.74805
30.53	-2.01172
30.535	-2.01172
30.54	-2.09961
30.545	-2.36328
30.55	-2.45117
30.555	-2.45117
30.56	-2.62695
30.565	-2.71484
30.57	-2.80273
30.575	-2.97852
30.58	-3.06641
30.585	-3.33008
30.59	-3.41797
30.595	-3.41797
30.6	-3.59375
30.605	-3.68164
30.61	-3.68164
30.615	-3.85742
30.62	-3.85742
30.625	-3.94531
30.63	-4.12109
30.635	-4.12109
30.64	-4.29688
30.645	-4.38477
30.65	-4.38477
30.655	-4.47266
30.66	-4.56055
30.665	-4.56055
30.67	-4.73633
30.675	-4.73633
30.68	-4.82422
30.685	-4.91211
30.69	-4.91211
30.695	-4.91211
30.7	-5.08789
30.705	-5.08789
30.71	-5.17578
30.715	-5.17578
30.72	-5.17578
30.725	-5.35156
30.73	-5.35156
30.735	-5.35156
30.74	-5.43945
30.745	-5.52734
30.75	-5.52734
30.755	-5.52734
30.76	-5.61523
30.765	-5.61523
30.77	-5.70313
30.775	-5.70313
30.78	-5.70313
30.785	-5.79102
30.79	-5.79102
30.795	-5.79102
30.8	-5.87891
30.805	-5.87891
30.81	-5.9668
30.815	-5.9668
30.82	-5.9668
30.825	-6.05469
30.83	-6.05469
30.835	-6.05469
30.84	-6.14258
30.845	-6.14258
30.85	-6.14258
30.855	-6.23047
30.86	-6.23047
30.865	-6.23047
30.87	-6.31836
30.875	-6.31836
30.88	-6.40625
30.885	-6.40625
30.89	-6.40625
30.895	-6.49414
30.9	-6.49414
30.905	-6.58203
30.91	-6.58203
30.915	-6.58203
30.92	-6.66992
30.925	-6.66992
30.93	-6.66992
30.935	-6.75781
30.94	-6.75781
30.945	-6.75781
30.95	-6.8457
30.955	-6.8457
30.96	-6.8457
30.965	-6.93359
30.97	-6.93359
30.975	-6.93359
30.98	-7.02148
30.985	-7.02148
30.99	-7.02148
30.995	-7.10938
31	-7.10938
31.005	-7.19727
31.01	-7.19727
31.015	-7.19727
31.02	-7.28516
31.025	-7.28516
31.03	-7.28516
31.035	-7.37305
31.04	-7.37305
31.045	-7.37305
31.05	-7.46094
31.055	-7.46094
31.06	-7.54883
31.065	-7.54883
31.07	-7.54883
31.075	-7.63672
31.08	-7.63672
31.085	-7.63672
31.09	-7.63672
31.095	-7.72461
31.1	-7.72461
31.105	-7.72461
31.11	-7.72461
31.115	-7.8125
31.12	-7.8125
31.125	-7.8125
31.13	-7.8125
31.135	-7.90039
31.14	-7.90039
31.145	-7.90039
31.15	-7.98828
31.155	-7.98828
31.16	-7.98828
31.165	-7.98828
31.17	-7.98828
31.175	-8.07617
31.18	-8.07617
31.185	-8.07617
31.19	-8.07617
31.195	-8.07617
31.2	-8.16406
31.205	-8.16406
31.21	-8.16406
31.215	-8.16406
31.22	-8.25195
31.225	-8.25195
31.23	-8.25195
31.235	-8.25195
31.24	-8.25195
31.245	-8.33984
31.25	-8.33984
31.255	-8.33984
31.26	-8.33984
31.265	-8.33984
31.27	-8.33984
31.275	-8.33984
31.28	-8.42773
31.285	-8.42773
31.29	-8.42773
31.295	-8.42773
31.3	-8.42773
31.305	-8.42773
31.31	-8.42773
31.315	-8.42773
31.32	-8.51563
31.325	-8.51563
31.33	-8.51563
31.335	-8.51563
31.34	-8.51563
31.345	-8.51563
31.35	-8.51563
31.355	-8.51563
31.36	-8.60352
31.365	-8.60352
31.37	-8.60352
31.375	-8.60352
31.38	-8.60352
31.385	-8.60352
31.39	-8.60352
31.395	-8.60352
31.4	-8.60352
31.405	-8.60352
31.41	-8.69141
31.415	-8.69141
31.42	-8.69141
31.425	-8.69141
31.43	-8.69141
31.435	-8.69141
31.44	-8.69141
31.445	-8.69141
31.45	-8.69141
31.455	-8.69141
31.46	-8.69141
31.465	-8.7793
31.47	-8.7793
31.475	-8.7793
31.48	-8.7793
31.485	-8.7793
31.49	-8.7793
31.495	-8.7793
31.5	-8.7793
31.505	-8.7793
31.51	-8.7793
31.515	-8.86719
31.52	-8.86719
31.525	-8.86719
31.53	-8.86719
31.535	-8.86719
31.54	-8.86719
31.545	-8.86719
31.55	-8.86719
31.555	-8.95508
31.56	-8.95508
31.565	-8.95508
31.57	-8.95508
31.575	-8.95508
31.58	-8.95508
31.585	-8.95508
31.59	-8.95508
31.595	-8.95508
31.6	-8.95508
31.605	-8.95508
31.61	-9.04297
31.615	-9.04297
31.62	-9.04297
31.625	-9.04297
31.63	-9.04297
31.635	-9.04297
31.64	-9.04297
31.645	-9.04297
31.65	-9.04297
31.655	-9.04297
31.66	-9.04297
31.665	-9.04297
31.67	-9.13086
31.675	-9.13086
31.68	-9.13086
31.685	-9.13086
31.69	-9.13086
31.695	-9.13086
31.7	-9.13086
31.705	-9.13086
31.71	-9.13086
31.715	-9.13086
31.72	-9.13086
31.725	-9.13086
31.73	-9.13086
31.735	-9.13086
31.74	-9.13086
31.745	-9.13086
31.75	-9.13086
31.755	-9.21875
31.76	-9.21875
31.765	-9.21875
31.77	-9.21875
31.775	-9.21875
31.78	-9.21875
31.785	-9.21875
31.79	-9.21875
31.795	-9.21875
31.8	-9.21875
31.805	-9.21875
31.81	-9.21875
31.815	-9.21875
31.82	-9.21875
31.825	-9.21875
31.83	-9.21875
31.835	-9.21875
31.84	-9.21875
31.845	-9.21875
31.85	-9.21875
31.855	-9.21875
31.86	-9.21875
31.865	-9.21875
31.87	-9.30664
31.875	-9.30664
31.88	-9.30664
31.885	-9.30664
31.89	-9.30664
31.895	-9.30664
31.9	-9.30664
31.905	-9.30664
31.91	-9.30664
31.915	-9.30664
31.92	-9.30664
31.925	-9.30664
31.93	-9.30664
31.935	-9.30664
31.94	-9.30664
31.945	-9.30664
31.95	-9.30664
31.955	-9.30664
31.96	-9.30664
31.965	-9.30664
31.97	-9.30664
31.975	-9.30664
31.98	-9.30664
31.985	-9.30664
31.99	-9.30664
31.995	-9.30664
32	-9.30664
32.005	-9.30664
32.01	-9.30664
32.015	-9.30664
32.02	-9.30664
32.025	-9.30664
32.03	-9.30664
32.035	-9.30664
32.04	-9.30664
32.045	-9.30664
32.05	-9.30664
32.055	-9.30664
32.06	-9.30664
32.065	-9.30664
32.07	-9.30664
32.075	-9.30664
32.08	-9.39453
32.085	-9.39453
32.09	-9.39453
32.095	-9.39453
32.1	-9.39453
32.105	-9.39453
32.11	-9.39453
32.115	-9.39453
