time (s) - Measured	Pitch (deg) - Measured
0	0
0.005	0
0.01	0
0.015	0
0.02	0.0878906
0.025	0.0878906
0.03	0.175781
0.035	0.263672
0.04	0.263672
0.045	0.263672
0.05	0.351562
0.055	0.351562
0.06	0.351562
0.065	0.351562
0.07	0.351562
0.075	0.351562
0.08	0.351562
0.085	0.351562
0.09	0.439453
0.095	0.439453
0.1	0.527344
0.105	0.527344
0.11	0.615234
0.115	0.615234
0.12	0.791016
0.125	0.878906
0.13	1.05469
0.135	1.14258
0.14	1.23047
0.145	1.40625
0.15	1.58203
0.155	1.75781
0.16	1.8457
0.165	1.93359
0.17	2.10938
0.175	2.10938
0.18	2.28516
0.185	2.28516
0.19	2.37305
0.195	2.46094
0.2	2.63672
0.205	2.63672
0.21	2.72461
0.215	2.72461
0.22	2.8125
0.225	2.98828
0.23	2.98828
0.235	3.07617
0.24	3.16406
0.245	3.25195
0.25	3.33984
0.255	3.42773
0.26	3.42773
0.265	3.51563
0.27	3.69141
0.275	3.60352
0.28	3.7793
0.285	3.7793
0.29	3.86719
0.295	3.95508
0.3	4.04297
0.305	4.13086
0.31	4.13086
0.315	4.13086
0.32	4.21875
0.325	4.21875
0.33	4.30664
0.335	4.30664
0.34	4.30664
0.345	4.30664
0.35	4.30664
0.355	4.30664
0.36	4.39453
0.365	4.39453
0.37	4.48242
0.375	4.48242
0.38	4.48242
0.385	4.48242
0.39	4.48242
0.395	4.39453
0.4	4.48242
0.405	4.39453
0.41	4.39453
0.415	4.39453
0.42	4.39453
0.425	4.30664
0.43	4.30664
0.435	4.30664
0.44	4.21875
0.445	4.21875
0.45	4.13086
0.455	4.13086
0.46	4.13086
0.465	4.04297
0.47	4.04297
0.475	3.95508
0.48	3.86719
0.485	3.86719
0.49	3.86719
0.495	3.7793
0.5	3.69141
0.505	3.69141
0.51	3.69141
0.515	3.42773
0.52	3.33984
0.525	3.33984
0.53	3.25195
0.535	3.25195
0.54	3.16406
0.545	3.16406
0.55	3.07617
0.555	3.07617
0.56	2.98828
0.565	2.90039
0.57	2.90039
0.575	2.8125
0.58	2.72461
0.585	2.63672
0.59	2.63672
0.595	2.54883
0.6	2.46094
0.605	2.37305
0.61	2.28516
0.615	2.19727
0.62	2.10938
0.625	2.10938
0.63	2.10938
0.635	1.93359
0.64	1.8457
0.645	1.8457
0.65	1.75781
0.655	1.66992
0.66	1.58203
0.665	1.58203
0.67	1.49414
0.675	1.40625
0.68	1.14258
0.685	1.05469
0.69	0.966797
0.695	0.878906
0.7	0.791016
0.705	0.703125
0.71	0.615234
0.715	0.615234
0.72	0.351562
0.725	0.263672
0.73	0.175781
0.735	0.0878906
0.74	0
0.745	-0.175781
0.75	-0.351562
0.755	-0.439453
0.76	-0.527344
0.765	-0.703125
0.77	-0.703125
0.775	-0.878906
0.78	-0.878906
0.785	-0.966797
0.79	-1.05469
0.795	-1.14258
0.8	-1.23047
0.805	-1.31836
0.81	-1.40625
0.815	-1.49414
0.82	-1.75781
0.825	-1.8457
0.83	-1.93359
0.835	-2.19727
0.84	-2.28516
0.845	-2.37305
0.85	-2.46094
0.855	-2.54883
0.86	-2.63672
0.865	-2.90039
0.87	-2.98828
0.875	-3.07617
0.88	-3.33984
0.885	-3.42773
0.89	-3.51563
0.895	-3.7793
0.9	-3.86719
0.905	-3.95508
0.91	-4.13086
0.915	-4.21875
0.92	-4.48242
0.925	-4.57031
0.93	-4.6582
0.935	-4.74609
0.94	-4.83398
0.945	-4.92188
0.95	-5.18555
0.955	-5.36133
0.96	-5.44922
0.965	-5.625
0.97	-5.71289
0.975	-5.97656
0.98	-6.06445
0.985	-6.15234
0.99	-6.24023
0.995	-6.32812
1	-6.41602
1.005	-6.67969
1.01	-6.76758
1.015	-6.85547
1.02	-6.94336
1.025	-7.03125
1.03	-7.11914
1.035	-7.38281
1.04	-7.4707
1.045	-7.55859
1.05	-7.82227
1.055	-7.91016
1.06	-8.08594
1.065	-8.17383
1.07	-8.26172
1.075	-8.4375
1.08	-8.52539
1.085	-8.61328
1.09	-8.78906
1.095	-8.87695
1.1	-8.96484
1.105	-9.22852
1.11	-9.31641
1.115	-9.58008
1.12	-9.58008
1.125	-9.66797
1.13	-9.84375
1.135	-9.84375
1.14	-10.0195
1.145	-10.1074
1.15	-10.1074
1.155	-10.1953
1.16	-10.2832
1.165	-10.3711
1.17	-10.3711
1.175	-10.459
1.18	-10.5469
1.185	-10.5469
1.19	-10.5469
1.195	-10.6348
1.2	-10.6348
1.205	-10.7227
1.21	-10.7227
1.215	-10.7227
1.22	-10.8105
1.225	-10.8105
1.23	-10.8105
1.235	-10.8105
1.24	-10.8105
1.245	-10.8105
1.25	-10.8105
1.255	-10.8984
1.26	-10.8984
1.265	-10.8984
1.27	-10.8105
1.275	-10.8105
1.28	-10.8105
1.285	-10.8105
1.29	-10.7227
1.295	-10.7227
1.3	-10.7227
1.305	-10.7227
1.31	-10.6348
1.315	-10.6348
1.32	-10.5469
1.325	-10.5469
1.33	-10.459
1.335	-10.3711
1.34	-10.2832
1.345	-10.1074
1.35	-10.0195
1.355	-9.93164
1.36	-9.66797
1.365	-9.58008
1.37	-9.49219
1.375	-9.22852
1.38	-9.14063
1.385	-9.05273
1.39	-8.78906
1.395	-8.70117
1.4	-8.61328
1.405	-8.17383
1.41	-8.08594
1.415	-7.91016
1.42	-7.55859
1.425	-7.4707
1.43	-7.38281
1.435	-6.85547
1.44	-6.76758
1.445	-6.32812
1.45	-6.15234
1.455	-5.97656
1.46	-5.53711
1.465	-5.36133
1.47	-5.18555
1.475	-4.6582
1.48	-4.48242
1.485	-4.30664
1.49	-3.7793
1.495	-3.60352
1.5	-3.42773
1.505	-3.16406
1.51	-2.98828
1.515	-2.8125
1.52	-2.46094
1.525	-2.28516
1.53	-2.10938
1.535	-1.58203
1.54	-1.49414
1.545	-1.31836
1.55	-0.966797
1.555	-0.791016
1.56	-0.703125
1.565	-0.351562
1.57	-0.175781
1.575	-0.0878906
1.58	0.0878906
1.585	0.263672
1.59	0.351562
1.595	0.791016
1.6	0.966797
1.605	1.05469
1.61	1.40625
1.615	1.58203
1.62	1.66992
1.625	1.93359
1.63	2.10938
1.635	2.28516
1.64	2.46094
1.645	2.46094
1.65	2.8125
1.655	2.90039
1.66	3.16406
1.665	3.25195
1.67	3.33984
1.675	3.51563
1.68	3.51563
1.685	3.69141
1.69	3.7793
1.695	3.7793
1.7	3.95508
1.705	4.04297
1.71	4.04297
1.715	4.13086
1.72	4.21875
1.725	4.30664
1.73	4.39453
1.735	4.48242
1.74	4.48242
1.745	4.57031
1.75	4.6582
1.755	4.6582
1.76	4.6582
1.765	4.74609
1.77	4.74609
1.775	4.74609
1.78	4.83398
1.785	4.92188
1.79	4.92188
1.795	5.00977
1.8	5.09766
1.805	5.09766
1.81	5.18555
1.815	5.18555
1.82	5.27344
1.825	5.27344
1.83	5.36133
1.835	5.36133
1.84	5.36133
1.845	5.44922
1.85	5.53711
1.855	5.625
1.86	5.625
1.865	5.71289
1.87	5.71289
1.875	5.80078
1.88	5.88867
1.885	5.88867
1.89	5.97656
1.895	5.97656
1.9	6.06445
1.905	6.06445
1.91	6.15234
1.915	6.15234
1.92	6.24023
1.925	6.32812
1.93	6.41602
1.935	6.50391
1.94	6.50391
1.945	6.5918
1.95	6.67969
1.955	6.76758
1.96	6.76758
1.965	6.76758
1.97	6.94336
1.975	6.94336
1.98	6.94336
1.985	7.11914
1.99	7.11914
1.995	7.20703
2	7.29492
2.005	7.29492
2.01	7.38281
2.015	7.38281
2.02	7.4707
2.025	7.55859
2.03	7.64648
2.035	7.64648
2.04	7.73437
2.045	7.82227
2.05	7.82227
2.055	7.99805
2.06	7.99805
2.065	8.08594
2.07	8.08594
2.075	8.17383
2.08	8.26172
2.085	8.26172
2.09	8.34961
2.095	8.34961
2.1	8.4375
2.105	8.52539
2.11	8.61328
2.115	8.61328
2.12	8.70117
2.125	8.78906
2.13	8.78906
2.135	8.87695
2.14	8.87695
2.145	8.87695
2.15	8.96484
2.155	8.96484
2.16	9.05273
2.165	9.14063
2.17	9.14063
2.175	9.14063
2.18	9.14063
2.185	9.22852
2.19	9.22852
2.195	9.31641
2.2	9.31641
2.205	9.31641
2.21	9.4043
2.215	9.4043
2.22	9.4043
2.225	9.49219
2.23	9.49219
2.235	9.58008
2.24	9.58008
2.245	9.58008
2.25	9.58008
2.255	9.66797
2.26	9.66797
2.265	9.66797
2.27	9.66797
2.275	9.75586
2.28	9.75586
2.285	9.75586
2.29	9.84375
2.295	9.84375
2.3	9.84375
2.305	9.93164
2.31	9.84375
2.315	9.84375
2.32	9.84375
2.325	9.84375
2.33	9.84375
2.335	9.93164
2.34	9.93164
2.345	9.93164
2.35	9.93164
2.355	10.0195
2.36	10.0195
2.365	10.0195
2.37	10.0195
2.375	10.0195
2.38	10.0195
2.385	9.93164
2.39	9.93164
2.395	9.93164
2.4	9.93164
2.405	9.93164
2.41	9.93164
2.415	9.93164
2.42	9.93164
2.425	10.0195
2.43	10.0195
2.435	10.0195
2.44	10.0195
2.445	10.0195
2.45	10.0195
2.455	10.0195
2.46	9.93164
2.465	9.93164
2.47	9.93164
2.475	9.93164
2.48	9.93164
2.485	9.93164
2.49	9.93164
2.495	9.93164
2.5	9.93164
2.505	9.93164
2.51	9.93164
2.515	9.93164
2.52	9.93164
2.525	9.93164
2.53	9.84375
2.535	9.84375
2.54	9.84375
2.545	9.84375
2.55	9.84375
2.555	9.75586
2.56	9.75586
2.565	9.66797
2.57	9.66797
2.575	9.66797
2.58	9.66797
2.585	9.66797
2.59	9.66797
2.595	9.66797
2.6	9.66797
2.605	9.66797
2.61	9.66797
2.615	9.58008
2.62	9.58008
2.625	9.58008
2.63	9.49219
2.635	9.49219
2.64	9.4043
2.645	9.4043
2.65	9.4043
2.655	9.4043
2.66	9.31641
2.665	9.31641
2.67	9.31641
2.675	9.31641
2.68	9.31641
2.685	9.31641
2.69	9.31641
2.695	9.31641
2.7	9.31641
2.705	9.31641
2.71	9.22852
2.715	9.14063
2.72	9.14063
2.725	9.14063
2.73	9.14063
2.735	9.05273
2.74	9.05273
2.745	9.05273
2.75	9.05273
2.755	8.96484
2.76	8.96484
2.765	8.96484
2.77	8.96484
2.775	8.96484
2.78	8.96484
2.785	8.96484
2.79	8.96484
2.795	8.96484
2.8	8.87695
2.805	8.78906
2.81	8.78906
2.815	8.78906
2.82	8.70117
2.825	8.70117
2.83	8.70117
2.835	8.70117
2.84	8.70117
2.845	8.61328
2.85	8.61328
2.855	8.70117
2.86	8.61328
2.865	8.61328
2.87	8.61328
2.875	8.61328
2.88	8.52539
2.885	8.52539
2.89	8.52539
2.895	8.4375
2.9	8.4375
2.905	8.4375
2.91	8.4375
2.915	8.4375
2.92	8.4375
2.925	8.4375
2.93	8.34961
2.935	8.34961
2.94	8.34961
2.945	8.34961
2.95	8.34961
2.955	8.34961
2.96	8.34961
2.965	8.26172
2.97	8.26172
2.975	8.26172
2.98	8.17383
2.985	8.17383
2.99	8.17383
2.995	8.17383
3	8.08594
3.005	8.08594
3.01	8.08594
3.015	8.08594
3.02	8.08594
3.025	8.08594
3.03	8.08594
3.035	8.08594
3.04	8.08594
3.045	8.08594
3.05	7.99805
3.055	7.99805
3.06	7.99805
3.065	7.99805
3.07	7.91016
3.075	7.91016
3.08	7.91016
3.085	7.91016
3.09	7.91016
3.095	7.91016
3.1	7.91016
3.105	7.82227
3.11	7.82227
3.115	7.82227
3.12	7.82227
3.125	7.91016
3.13	7.82227
3.135	7.82227
3.14	7.82227
3.145	7.82227
3.15	7.73437
3.155	7.73437
3.16	7.73437
3.165	7.73437
3.17	7.64648
3.175	7.64648
3.18	7.64648
3.185	7.64648
3.19	7.55859
3.195	7.55859
3.2	7.55859
3.205	7.55859
3.21	7.55859
3.215	7.55859
3.22	7.55859
3.225	7.55859
3.23	7.55859
3.235	7.55859
3.24	7.4707
3.245	7.4707
3.25	7.4707
3.255	7.4707
3.26	7.38281
3.265	7.38281
3.27	7.38281
3.275	7.38281
3.28	7.29492
3.285	7.29492
3.29	7.29492
3.295	7.29492
3.3	7.20703
3.305	7.29492
3.31	7.20703
3.315	7.20703
3.32	7.20703
3.325	7.11914
3.33	7.11914
3.335	7.03125
3.34	7.03125
3.345	7.03125
3.35	7.03125
3.355	7.03125
3.36	6.94336
3.365	6.94336
3.37	6.94336
3.375	6.94336
3.38	6.94336
3.385	6.85547
3.39	6.85547
3.395	6.76758
3.4	6.76758
3.405	6.67969
3.41	6.67969
3.415	6.67969
3.42	6.67969
3.425	6.67969
3.43	6.67969
3.435	6.5918
3.44	6.5918
3.445	6.5918
3.45	6.5918
3.455	6.5918
3.46	6.5918
3.465	6.50391
3.47	6.50391
3.475	6.50391
3.48	6.50391
3.485	6.50391
3.49	6.50391
3.495	6.50391
3.5	6.41602
3.505	6.41602
3.51	6.41602
3.515	6.41602
3.52	6.41602
3.525	6.41602
3.53	6.41602
3.535	6.32812
3.54	6.32812
3.545	6.32812
3.55	6.32812
3.555	6.32812
3.56	6.32812
3.565	6.32812
3.57	6.24023
3.575	6.24023
3.58	6.24023
3.585	6.24023
3.59	6.24023
3.595	6.15234
3.6	6.15234
3.605	6.15234
3.61	6.15234
3.615	6.15234
3.62	6.15234
3.625	6.15234
3.63	6.15234
3.635	6.15234
3.64	6.06445
3.645	6.06445
3.65	6.06445
3.655	6.06445
3.66	5.97656
3.665	5.97656
3.67	5.97656
3.675	5.97656
3.68	5.97656
3.685	5.97656
3.69	5.97656
3.695	5.97656
3.7	5.97656
3.705	5.97656
3.71	5.97656
3.715	5.97656
3.72	5.88867
3.725	5.88867
3.73	5.88867
3.735	5.88867
3.74	5.88867
3.745	5.88867
3.75	5.80078
3.755	5.80078
3.76	5.80078
3.765	5.80078
3.77	5.80078
3.775	5.80078
3.78	5.80078
3.785	5.80078
3.79	5.80078
3.795	5.80078
3.8	5.80078
3.805	5.80078
3.81	5.71289
3.815	5.71289
3.82	5.71289
3.825	5.71289
3.83	5.71289
3.835	5.71289
3.84	5.71289
3.845	5.71289
3.85	5.71289
3.855	5.625
3.86	5.625
3.865	5.625
3.87	5.625
3.875	5.625
3.88	5.625
3.885	5.625
3.89	5.625
3.895	5.53711
3.9	5.53711
3.905	5.53711
3.91	5.53711
3.915	5.53711
3.92	5.53711
3.925	5.53711
3.93	5.53711
3.935	5.53711
3.94	5.53711
3.945	5.53711
3.95	5.53711
3.955	5.53711
3.96	5.53711
3.965	5.53711
3.97	5.53711
3.975	5.53711
3.98	5.53711
3.985	5.44922
3.99	5.44922
3.995	5.44922
4	5.44922
4.005	5.44922
4.01	5.44922
4.015	5.44922
4.02	5.44922
4.025	5.44922
4.03	5.44922
4.035	5.44922
4.04	5.44922
4.045	5.44922
4.05	5.44922
4.055	5.44922
4.06	5.44922
4.065	5.44922
4.07	5.44922
4.075	5.44922
4.08	5.44922
4.085	5.44922
4.09	5.44922
4.095	5.44922
4.1	5.44922
4.105	5.44922
4.11	5.44922
4.115	5.44922
4.12	5.44922
4.125	5.44922
4.13	5.44922
4.135	5.44922
4.14	5.44922
4.145	5.44922
4.15	5.44922
4.155	5.44922
4.16	5.44922
4.165	5.36133
4.17	5.36133
4.175	5.36133
4.18	5.36133
4.185	5.36133
4.19	5.36133
4.195	5.36133
4.2	5.36133
4.205	5.36133
4.21	5.36133
4.215	5.36133
4.22	5.36133
4.225	5.36133
4.23	5.36133
4.235	5.44922
4.24	5.36133
4.245	5.36133
4.25	5.36133
4.255	5.36133
4.26	5.36133
4.265	5.36133
4.27	5.36133
4.275	5.36133
4.28	5.36133
4.285	5.36133
4.29	5.36133
4.295	5.36133
4.3	5.36133
4.305	5.36133
4.31	5.36133
4.315	5.36133
4.32	5.36133
4.325	5.36133
4.33	5.36133
4.335	5.36133
4.34	5.36133
4.345	5.36133
4.35	5.36133
4.355	5.36133
4.36	5.36133
4.365	5.36133
4.37	5.36133
4.375	5.36133
4.38	5.36133
4.385	5.36133
4.39	5.36133
4.395	5.36133
4.4	5.36133
4.405	5.36133
4.41	5.36133
4.415	5.44922
4.42	5.44922
4.425	5.44922
4.43	5.44922
4.435	5.44922
4.44	5.44922
4.445	5.44922
4.45	5.44922
4.455	5.44922
4.46	5.44922
4.465	5.44922
4.47	5.44922
4.475	5.44922
4.48	5.44922
4.485	5.44922
4.49	5.44922
4.495	5.44922
4.5	5.44922
4.505	5.44922
4.51	5.44922
4.515	5.44922
4.52	5.44922
4.525	5.44922
4.53	5.44922
4.535	5.44922
4.54	5.44922
4.545	5.44922
4.55	5.44922
4.555	5.44922
4.56	5.44922
4.565	5.44922
4.57	5.44922
4.575	5.44922
4.58	5.44922
4.585	5.44922
4.59	5.44922
4.595	5.44922
4.6	5.44922
4.605	5.44922
4.61	5.44922
4.615	5.44922
4.62	5.44922
4.625	5.44922
4.63	5.44922
4.635	5.44922
4.64	5.44922
4.645	5.44922
4.65	5.44922
4.655	5.44922
4.66	5.44922
4.665	5.44922
4.67	5.44922
4.675	5.44922
4.68	5.44922
4.685	5.44922
4.69	5.44922
4.695	5.44922
4.7	5.44922
4.705	5.44922
4.71	5.44922
4.715	5.44922
4.72	5.53711
4.725	5.53711
4.73	5.53711
4.735	5.53711
4.74	5.44922
4.745	5.44922
4.75	5.44922
4.755	5.44922
4.76	5.44922
4.765	5.44922
4.77	5.44922
4.775	5.44922
4.78	5.44922
4.785	5.44922
4.79	5.44922
4.795	5.44922
4.8	5.44922
4.805	5.44922
4.81	5.44922
4.815	5.53711
4.82	5.44922
4.825	5.44922
4.83	5.44922
4.835	5.53711
4.84	5.44922
4.845	5.44922
4.85	5.53711
4.855	5.44922
4.86	5.44922
4.865	5.53711
4.87	5.44922
4.875	5.44922
4.88	5.53711
4.885	5.53711
4.89	5.44922
4.895	5.53711
4.9	5.53711
4.905	5.44922
4.91	5.44922
4.915	5.53711
4.92	5.53711
4.925	5.44922
4.93	5.44922
4.935	5.44922
4.94	5.44922
4.945	5.44922
4.95	5.44922
4.955	5.44922
4.96	5.53711
4.965	5.44922
4.97	5.44922
4.975	5.44922
4.98	5.44922
4.985	5.44922
4.99	5.44922
4.995	5.44922
5	5.44922
5.005	5.44922
5.01	5.44922
5.015	5.44922
5.02	5.44922
5.025	5.44922
5.03	5.44922
5.035	5.44922
5.04	5.44922
5.045	5.44922
5.05	5.44922
5.055	5.44922
5.06	5.44922
5.065	5.53711
5.07	5.53711
5.075	5.53711
5.08	5.53711
5.085	5.53711
5.09	5.53711
5.095	5.53711
5.1	5.53711
5.105	5.53711
5.11	5.44922
5.115	5.53711
5.12	5.53711
5.125	5.44922
5.13	5.53711
5.135	5.53711
5.14	5.53711
5.145	5.53711
5.15	5.53711
5.155	5.53711
5.16	5.53711
5.165	5.53711
5.17	5.44922
5.175	5.44922
5.18	5.44922
5.185	5.44922
5.19	5.44922
5.195	5.53711
5.2	5.44922
5.205	5.44922
5.21	5.44922
5.215	5.44922
5.22	5.44922
5.225	5.44922
5.23	5.36133
5.235	5.44922
5.24	5.27344
5.245	5.36133
5.25	5.27344
5.255	5.27344
5.26	5.27344
5.265	5.27344
5.27	5.18555
5.275	5.18555
5.28	5.18555
5.285	5.18555
5.29	5.09766
5.295	5.00977
5.3	5.00977
5.305	4.92188
5.31	5.00977
5.315	4.92188
5.32	4.92188
5.325	4.92188
5.33	4.92188
5.335	4.92188
5.34	4.92188
5.345	4.83398
5.35	4.83398
5.355	4.83398
5.36	4.74609
5.365	4.74609
5.37	4.74609
5.375	4.74609
5.38	4.74609
5.385	4.83398
5.39	4.74609
5.395	4.83398
5.4	4.83398
5.405	4.83398
5.41	4.83398
5.415	4.83398
5.42	4.83398
5.425	4.74609
5.43	4.74609
5.435	4.74609
5.44	4.74609
5.445	4.74609
5.45	4.74609
5.455	4.83398
5.46	4.83398
5.465	4.83398
5.47	4.92188
5.475	4.92188
5.48	4.92188
5.485	4.92188
5.49	4.92188
5.495	4.92188
5.5	4.92188
5.505	4.92188
5.51	4.83398
5.515	4.83398
5.52	4.92188
5.525	4.92188
5.53	4.92188
5.535	4.92188
5.54	4.92188
5.545	4.92188
5.55	4.92188
5.555	5.00977
5.56	4.92188
5.565	4.92188
5.57	4.92188
5.575	4.83398
5.58	4.83398
5.585	4.83398
5.59	4.83398
5.595	4.83398
5.6	4.83398
5.605	4.83398
5.61	4.92188
5.615	4.83398
5.62	4.83398
5.625	4.83398
5.63	4.74609
5.635	4.74609
5.64	4.6582
5.645	4.6582
5.65	4.6582
5.655	4.57031
5.66	4.57031
5.665	4.57031
5.67	4.57031
5.675	4.57031
5.68	4.57031
5.685	4.48242
5.69	4.48242
5.695	4.48242
5.7	4.39453
5.705	4.30664
5.71	4.30664
5.715	4.21875
5.72	4.21875
5.725	4.13086
5.73	4.13086
5.735	4.13086
5.74	4.04297
5.745	4.04297
5.75	3.95508
5.755	3.86719
5.76	3.7793
5.765	3.7793
5.77	3.7793
5.775	3.69141
5.78	3.69141
5.785	3.69141
5.79	3.69141
5.795	3.60352
5.8	3.60352
5.805	3.60352
5.81	3.60352
5.815	3.51563
5.82	3.51563
5.825	3.33984
5.83	3.33984
5.835	3.33984
5.84	3.33984
5.845	3.33984
5.85	3.33984
5.855	3.33984
5.86	3.25195
5.865	3.25195
5.87	3.25195
5.875	3.25195
5.88	3.16406
5.885	3.16406
5.89	3.16406
5.895	3.16406
5.9	3.16406
5.905	3.16406
5.91	3.25195
5.915	3.25195
5.92	3.25195
5.925	3.25195
5.93	3.25195
5.935	3.25195
5.94	3.25195
5.945	3.25195
5.95	3.25195
5.955	3.33984
5.96	3.33984
5.965	3.33984
5.97	3.42773
5.975	3.51563
5.98	3.51563
5.985	3.60352
5.99	3.69141
5.995	3.69141
6	3.7793
6.005	3.7793
6.01	3.7793
6.015	3.86719
6.02	3.86719
6.025	4.04297
6.03	4.13086
6.035	4.21875
6.04	4.21875
6.045	4.30664
6.05	4.39453
6.055	4.48242
6.06	4.57031
6.065	4.6582
6.07	4.6582
6.075	4.74609
6.08	4.83398
6.085	4.92188
6.09	4.92188
6.095	5.00977
6.1	5.09766
6.105	5.09766
6.11	5.18555
6.115	5.27344
6.12	5.36133
6.125	5.53711
6.13	5.53711
6.135	5.625
6.14	5.71289
6.145	5.71289
6.15	5.80078
6.155	5.88867
6.16	5.88867
6.165	5.97656
6.17	6.06445
6.175	6.06445
6.18	6.15234
6.185	6.24023
6.19	6.32812
6.195	6.41602
6.2	6.41602
6.205	6.41602
6.21	6.50391
6.215	6.5918
6.22	6.5918
6.225	6.67969
6.23	6.67969
6.235	6.67969
6.24	6.76758
6.245	6.76758
6.25	6.85547
6.255	6.85547
6.26	6.94336
6.265	6.94336
6.27	6.94336
6.275	6.94336
6.28	6.94336
6.285	6.94336
6.29	6.94336
6.295	6.94336
6.3	7.03125
6.305	7.03125
6.31	7.03125
6.315	7.03125
6.32	7.03125
6.325	7.03125
6.33	7.03125
6.335	7.03125
6.34	7.03125
6.345	7.03125
6.35	7.03125
6.355	7.03125
6.36	7.03125
6.365	7.03125
6.37	7.03125
6.375	7.03125
6.38	7.03125
6.385	6.94336
6.39	6.94336
6.395	6.94336
6.4	6.94336
6.405	6.94336
6.41	6.94336
6.415	6.94336
6.42	6.94336
6.425	6.94336
6.43	6.94336
6.435	6.85547
6.44	6.85547
6.445	6.85547
6.45	6.85547
6.455	6.85547
6.46	6.85547
6.465	6.85547
6.47	6.76758
6.475	6.76758
6.48	6.76758
6.485	6.76758
6.49	6.76758
6.495	6.76758
6.5	6.76758
6.505	6.67969
6.51	6.67969
6.515	6.67969
6.52	6.67969
6.525	6.67969
6.53	6.67969
6.535	6.67969
6.54	6.67969
6.545	6.67969
6.55	6.67969
6.555	6.67969
6.56	6.67969
6.565	6.67969
6.57	6.67969
6.575	6.67969
6.58	6.67969
6.585	6.67969
6.59	6.67969
6.595	6.67969
6.6	6.67969
6.605	6.67969
6.61	6.67969
6.615	6.67969
6.62	6.67969
6.625	6.67969
6.63	6.67969
6.635	6.67969
6.64	6.67969
6.645	6.67969
6.65	6.67969
6.655	6.67969
6.66	6.67969
6.665	6.67969
6.67	6.67969
6.675	6.76758
6.68	6.67969
6.685	6.76758
6.69	6.76758
6.695	6.76758
6.7	6.76758
6.705	6.76758
6.71	6.76758
6.715	6.76758
6.72	6.76758
6.725	6.76758
6.73	6.76758
6.735	6.76758
6.74	6.76758
6.745	6.85547
6.75	6.85547
6.755	6.85547
6.76	6.85547
6.765	6.85547
6.77	6.85547
6.775	6.85547
6.78	6.85547
6.785	6.85547
6.79	6.85547
6.795	6.94336
6.8	6.85547
6.805	6.94336
6.81	6.94336
6.815	6.94336
6.82	6.94336
6.825	6.94336
6.83	6.94336
6.835	6.94336
6.84	6.94336
6.845	6.94336
6.85	6.94336
6.855	6.94336
6.86	7.03125
6.865	7.03125
6.87	7.03125
6.875	7.03125
6.88	7.03125
6.885	7.03125
6.89	7.03125
6.895	7.03125
6.9	7.03125
6.905	7.03125
6.91	7.03125
6.915	7.03125
6.92	7.03125
6.925	7.03125
6.93	7.03125
6.935	7.03125
6.94	7.03125
6.945	7.03125
6.95	7.03125
6.955	7.03125
6.96	7.03125
6.965	7.03125
6.97	7.03125
6.975	7.03125
6.98	7.03125
6.985	7.03125
6.99	7.03125
6.995	7.03125
7	7.03125
7.005	7.03125
7.01	7.03125
7.015	7.03125
7.02	7.03125
7.025	7.03125
7.03	7.03125
7.035	7.03125
7.04	7.03125
7.045	7.03125
7.05	7.03125
7.055	6.94336
7.06	6.94336
7.065	6.94336
7.07	6.94336
7.075	6.94336
7.08	6.94336
7.085	6.94336
7.09	6.94336
7.095	6.85547
7.1	6.85547
7.105	6.85547
7.11	6.85547
7.115	6.85547
7.12	6.85547
7.125	6.85547
7.13	6.85547
7.135	6.76758
7.14	6.76758
7.145	6.76758
7.15	6.76758
7.155	6.76758
7.16	6.76758
7.165	6.67969
7.17	6.67969
7.175	6.67969
7.18	6.67969
7.185	6.67969
7.19	6.67969
7.195	6.5918
7.2	6.5918
7.205	6.5918
7.21	6.50391
7.215	6.5918
7.22	6.50391
7.225	6.50391
7.23	6.50391
7.235	6.50391
7.24	6.50391
7.245	6.50391
7.25	6.50391
7.255	6.50391
7.26	6.41602
7.265	6.41602
7.27	6.41602
7.275	6.41602
7.28	6.41602
7.285	6.41602
7.29	6.41602
7.295	6.41602
7.3	6.41602
7.305	6.32812
7.31	6.32812
7.315	6.32812
7.32	6.32812
7.325	6.32812
7.33	6.32812
7.335	6.32812
7.34	6.32812
7.345	6.32812
7.35	6.32812
7.355	6.32812
7.36	6.24023
7.365	6.24023
7.37	6.24023
7.375	6.24023
7.38	6.24023
7.385	6.24023
7.39	6.24023
7.395	6.24023
7.4	6.24023
7.405	6.15234
7.41	6.24023
7.415	6.15234
7.42	6.15234
7.425	6.15234
7.43	6.15234
7.435	6.15234
7.44	6.15234
7.445	6.15234
7.45	6.15234
7.455	6.15234
7.46	6.15234
7.465	6.15234
7.47	6.15234
7.475	6.15234
7.48	6.06445
7.485	6.15234
7.49	6.06445
7.495	6.06445
7.5	6.06445
7.505	6.06445
7.51	6.06445
7.515	6.06445
7.52	6.06445
7.525	6.06445
7.53	6.06445
7.535	6.06445
7.54	6.06445
7.545	6.06445
7.55	5.97656
7.555	6.06445
7.56	5.97656
7.565	5.97656
7.57	5.97656
7.575	5.97656
7.58	5.97656
7.585	5.97656
7.59	5.97656
7.595	5.97656
7.6	5.97656
7.605	5.97656
7.61	5.97656
7.615	5.97656
7.62	5.97656
7.625	5.88867
7.63	5.88867
7.635	5.88867
7.64	5.88867
7.645	5.88867
7.65	5.88867
7.655	5.88867
7.66	5.88867
7.665	5.88867
7.67	5.88867
7.675	5.80078
7.68	5.80078
7.685	5.80078
7.69	5.80078
7.695	5.80078
7.7	5.80078
7.705	5.80078
7.71	5.80078
7.715	5.80078
7.72	5.80078
7.725	5.80078
7.73	5.80078
7.735	5.80078
7.74	5.80078
7.745	5.80078
7.75	5.71289
7.755	5.71289
7.76	5.71289
7.765	5.80078
7.77	5.71289
7.775	5.71289
7.78	5.71289
7.785	5.71289
7.79	5.71289
7.795	5.71289
7.8	5.71289
7.805	5.71289
7.81	5.71289
7.815	5.71289
7.82	5.71289
7.825	5.71289
7.83	5.71289
7.835	5.71289
7.84	5.71289
7.845	5.625
7.85	5.625
7.855	5.625
7.86	5.625
7.865	5.625
7.87	5.625
7.875	5.625
7.88	5.625
7.885	5.625
7.89	5.625
7.895	5.625
7.9	5.625
7.905	5.625
7.91	5.625
7.915	5.625
7.92	5.625
7.925	5.625
7.93	5.625
7.935	5.625
7.94	5.625
7.945	5.625
7.95	5.625
7.955	5.625
7.96	5.625
7.965	5.625
7.97	5.625
7.975	5.625
7.98	5.625
7.985	5.625
7.99	5.625
7.995	5.625
8	5.625
8.005	5.625
8.01	5.53711
8.015	5.625
8.02	5.53711
8.025	5.53711
8.03	5.625
8.035	5.53711
8.04	5.625
8.045	5.625
8.05	5.53711
8.055	5.53711
8.06	5.53711
8.065	5.53711
8.07	5.53711
8.075	5.53711
8.08	5.53711
8.085	5.53711
8.09	5.53711
8.095	5.53711
8.1	5.53711
8.105	5.53711
8.11	5.53711
8.115	5.53711
8.12	5.53711
8.125	5.53711
8.13	5.53711
8.135	5.53711
8.14	5.53711
8.145	5.53711
8.15	5.53711
8.155	5.53711
8.16	5.53711
8.165	5.53711
8.17	5.53711
8.175	5.53711
8.18	5.53711
8.185	5.53711
8.19	5.53711
8.195	5.53711
8.2	5.53711
8.205	5.53711
8.21	5.53711
8.215	5.53711
8.22	5.53711
8.225	5.53711
8.23	5.53711
8.235	5.53711
8.24	5.53711
8.245	5.53711
8.25	5.53711
8.255	5.53711
8.26	5.53711
8.265	5.53711
8.27	5.53711
8.275	5.53711
8.28	5.53711
8.285	5.53711
8.29	5.53711
8.295	5.53711
8.3	5.53711
8.305	5.53711
8.31	5.53711
8.315	5.53711
8.32	5.53711
8.325	5.53711
8.33	5.53711
8.335	5.53711
8.34	5.53711
8.345	5.53711
8.35	5.53711
8.355	5.53711
8.36	5.53711
8.365	5.53711
8.37	5.53711
8.375	5.53711
8.38	5.53711
8.385	5.625
8.39	5.625
8.395	5.625
8.4	5.625
8.405	5.625
8.41	5.625
8.415	5.625
8.42	5.625
8.425	5.625
8.43	5.625
8.435	5.625
8.44	5.625
8.445	5.625
8.45	5.625
8.455	5.625
8.46	5.71289
8.465	5.625
8.47	5.71289
8.475	5.71289
8.48	5.71289
8.485	5.71289
8.49	5.71289
8.495	5.71289
8.5	5.71289
8.505	5.71289
8.51	5.71289
8.515	5.71289
8.52	5.80078
8.525	5.80078
8.53	5.80078
8.535	5.80078
8.54	5.80078
8.545	5.80078
8.55	5.80078
8.555	5.80078
8.56	5.80078
8.565	5.88867
8.57	5.88867
8.575	5.88867
8.58	5.88867
8.585	5.88867
8.59	5.88867
8.595	5.88867
8.6	5.88867
8.605	5.88867
8.61	5.97656
8.615	5.97656
8.62	5.97656
8.625	5.97656
8.63	5.97656
8.635	5.97656
8.64	5.97656
8.645	5.97656
8.65	5.97656
8.655	5.97656
8.66	5.97656
8.665	5.97656
8.67	5.97656
8.675	5.97656
8.68	5.97656
8.685	6.06445
8.69	6.06445
8.695	6.06445
8.7	6.06445
8.705	6.06445
8.71	6.06445
8.715	6.06445
8.72	6.06445
8.725	6.06445
8.73	6.06445
8.735	6.06445
8.74	6.06445
8.745	6.06445
8.75	6.06445
8.755	6.06445
8.76	6.06445
8.765	6.15234
8.77	6.15234
8.775	6.15234
8.78	6.15234
8.785	6.15234
8.79	6.15234
8.795	6.15234
8.8	6.15234
8.805	6.15234
8.81	6.15234
8.815	6.15234
8.82	6.15234
8.825	6.15234
8.83	6.15234
8.835	6.15234
8.84	6.15234
8.845	6.15234
8.85	6.15234
8.855	6.15234
8.86	6.15234
8.865	6.15234
8.87	6.15234
8.875	6.15234
8.88	6.15234
8.885	6.15234
8.89	6.15234
8.895	6.15234
8.9	6.15234
8.905	6.15234
8.91	6.15234
8.915	6.15234
8.92	6.15234
8.925	6.15234
8.93	6.15234
8.935	6.15234
8.94	6.15234
8.945	6.15234
8.95	6.15234
8.955	6.15234
8.96	6.15234
8.965	6.15234
8.97	6.15234
8.975	6.15234
8.98	6.15234
8.985	6.15234
8.99	6.15234
8.995	6.15234
9	6.15234
9.005	6.15234
9.01	6.15234
9.015	6.24023
9.02	6.24023
9.025	6.24023
9.03	6.24023
9.035	6.24023
9.04	6.24023
9.045	6.24023
9.05	6.24023
9.055	6.24023
9.06	6.24023
9.065	6.24023
9.07	6.24023
9.075	6.24023
9.08	6.24023
9.085	6.24023
9.09	6.24023
9.095	6.24023
9.1	6.24023
9.105	6.24023
9.11	6.24023
9.115	6.24023
9.12	6.24023
9.125	6.24023
9.13	6.24023
9.135	6.24023
9.14	6.24023
9.145	6.24023
9.15	6.24023
9.155	6.24023
9.16	6.24023
9.165	6.24023
9.17	6.24023
9.175	6.24023
9.18	6.24023
9.185	6.24023
9.19	6.24023
9.195	6.24023
9.2	6.24023
9.205	6.24023
9.21	6.24023
9.215	6.24023
9.22	6.24023
9.225	6.24023
9.23	6.24023
9.235	6.32812
9.24	6.24023
9.245	6.32812
9.25	6.32812
9.255	6.24023
9.26	6.32812
9.265	6.32812
9.27	6.32812
9.275	6.32812
9.28	6.32812
9.285	6.32812
9.29	6.32812
9.295	6.32812
9.3	6.32812
9.305	6.32812
9.31	6.32812
9.315	6.32812
9.32	6.32812
9.325	6.32812
9.33	6.32812
9.335	6.32812
9.34	6.32812
9.345	6.32812
9.35	6.32812
9.355	6.41602
9.36	6.41602
9.365	6.41602
9.37	6.41602
9.375	6.41602
9.38	6.41602
9.385	6.41602
9.39	6.41602
9.395	6.41602
9.4	6.41602
9.405	6.41602
9.41	6.41602
9.415	6.41602
9.42	6.41602
9.425	6.41602
9.43	6.50391
9.435	6.50391
9.44	6.50391
9.445	6.50391
9.45	6.50391
9.455	6.50391
9.46	6.50391
9.465	6.50391
9.47	6.50391
9.475	6.50391
9.48	6.50391
9.485	6.50391
9.49	6.50391
9.495	6.50391
9.5	6.50391
9.505	6.50391
9.51	6.50391
9.515	6.50391
9.52	6.50391
9.525	6.50391
9.53	6.50391
9.535	6.50391
9.54	6.50391
9.545	6.50391
9.55	6.5918
9.555	6.50391
9.56	6.50391
9.565	6.50391
9.57	6.50391
9.575	6.5918
9.58	6.50391
9.585	6.50391
9.59	6.50391
9.595	6.50391
9.6	6.50391
9.605	6.50391
9.61	6.50391
9.615	6.50391
9.62	6.50391
9.625	6.50391
9.63	6.50391
9.635	6.50391
9.64	6.50391
9.645	6.50391
9.65	6.50391
9.655	6.50391
9.66	6.50391
9.665	6.50391
9.67	6.50391
9.675	6.50391
9.68	6.50391
9.685	6.50391
9.69	6.50391
9.695	6.50391
9.7	6.41602
9.705	6.50391
9.71	6.41602
9.715	6.41602
9.72	6.41602
9.725	6.41602
9.73	6.41602
9.735	6.41602
9.74	6.41602
9.745	6.41602
9.75	6.41602
9.755	6.32812
9.76	6.41602
9.765	6.32812
9.77	6.32812
9.775	6.32812
9.78	6.32812
9.785	6.32812
9.79	6.32812
9.795	6.32812
9.8	6.32812
9.805	6.32812
9.81	6.32812
9.815	6.32812
9.82	6.32812
9.825	6.32812
9.83	6.24023
9.835	6.24023
9.84	6.24023
9.845	6.24023
9.85	6.24023
9.855	6.24023
9.86	6.24023
9.865	6.24023
9.87	6.24023
9.875	6.15234
9.88	6.15234
9.885	6.15234
9.89	6.15234
9.895	6.15234
9.9	6.15234
9.905	6.15234
9.91	6.15234
9.915	6.15234
9.92	6.15234
9.925	6.15234
9.93	6.15234
9.935	6.15234
9.94	6.15234
9.945	6.15234
9.95	6.15234
9.955	6.15234
9.96	6.15234
9.965	6.06445
9.97	6.15234
9.975	6.06445
9.98	6.15234
9.985	6.06445
9.99	6.06445
9.995	6.15234
10	6.15234
10.005	6.06445
10.01	6.06445
10.015	6.15234
10.02	6.15234
10.025	6.15234
10.03	6.15234
10.035	6.15234
10.04	6.15234
10.045	6.15234
10.05	6.15234
10.055	6.15234
10.06	6.15234
10.065	6.15234
10.07	6.15234
10.075	6.15234
10.08	6.15234
10.085	6.15234
10.09	6.15234
10.095	6.15234
10.1	6.15234
10.105	6.15234
10.11	6.15234
10.115	6.15234
10.12	6.15234
10.125	6.15234
10.13	6.15234
10.135	6.15234
10.14	6.15234
10.145	6.15234
10.15	6.15234
10.155	6.06445
10.16	6.06445
10.165	6.06445
10.17	6.06445
10.175	6.06445
10.18	6.06445
10.185	6.06445
10.19	5.97656
10.195	5.97656
10.2	5.88867
10.205	5.88867
10.21	5.88867
10.215	5.80078
10.22	5.80078
10.225	5.80078
10.23	5.625
10.235	5.625
10.24	5.625
10.245	5.53711
10.25	5.53711
10.255	5.44922
10.26	5.44922
10.265	5.36133
10.27	5.36133
10.275	5.36133
10.28	5.27344
10.285	5.27344
10.29	5.18555
10.295	5.09766
10.3	5.09766
10.305	4.92188
10.31	4.92188
10.315	4.83398
10.32	4.83398
10.325	4.74609
10.33	4.6582
10.335	4.57031
10.34	4.57031
10.345	4.48242
10.35	4.48242
10.355	4.48242
10.36	4.39453
10.365	4.39453
10.37	4.39453
10.375	4.30664
10.38	4.30664
10.385	4.30664
10.39	4.21875
10.395	4.21875
10.4	4.21875
10.405	4.21875
10.41	4.13086
10.415	4.13086
10.42	4.13086
10.425	4.13086
10.43	4.13086
10.435	4.13086
10.44	4.13086
10.445	4.13086
10.45	4.13086
10.455	4.13086
10.46	4.13086
10.465	4.13086
10.47	4.21875
10.475	4.30664
10.48	4.21875
10.485	4.30664
10.49	4.30664
10.495	4.30664
10.5	4.39453
10.505	4.39453
10.51	4.39453
10.515	4.39453
10.52	4.48242
10.525	4.48242
10.53	4.57031
10.535	4.57031
10.54	4.74609
10.545	4.74609
10.55	4.83398
10.555	4.83398
10.56	4.92188
10.565	5.00977
10.57	5.09766
10.575	5.09766
10.58	5.18555
10.585	5.27344
10.59	5.27344
10.595	5.44922
10.6	5.44922
10.605	5.53711
10.61	5.625
10.615	5.71289
10.62	5.71289
10.625	5.80078
10.63	5.88867
10.635	5.88867
10.64	5.88867
10.645	5.88867
10.65	5.97656
10.655	6.06445
10.66	6.06445
10.665	6.15234
10.67	6.24023
10.675	6.32812
10.68	6.32812
10.685	6.41602
10.69	6.41602
10.695	6.41602
10.7	6.41602
10.705	6.41602
10.71	6.50391
10.715	6.50391
10.72	6.50391
10.725	6.5918
10.73	6.5918
10.735	6.67969
10.74	6.67969
10.745	6.67969
10.75	6.67969
10.755	6.76758
10.76	6.67969
10.765	6.67969
10.77	6.67969
10.775	6.67969
10.78	6.67969
10.785	6.67969
10.79	6.67969
10.795	6.67969
10.8	6.67969
10.805	6.67969
10.81	6.67969
10.815	6.67969
10.82	6.67969
10.825	6.67969
10.83	6.5918
10.835	6.5918
10.84	6.5918
10.845	6.50391
10.85	6.50391
10.855	6.50391
10.86	6.41602
10.865	6.41602
10.87	6.41602
10.875	6.32812
10.88	6.32812
10.885	6.32812
10.89	6.24023
10.895	6.24023
10.9	6.15234
10.905	6.15234
10.91	6.15234
10.915	6.06445
10.92	6.06445
10.925	5.97656
10.93	5.97656
10.935	5.88867
10.94	5.88867
10.945	5.88867
10.95	5.88867
10.955	5.80078
10.96	5.80078
10.965	5.71289
10.97	5.71289
10.975	5.625
10.98	5.53711
10.985	5.53711
10.99	5.53711
10.995	5.53711
11	5.53711
11.005	5.44922
11.01	5.44922
11.015	5.44922
11.02	5.44922
11.025	5.44922
11.03	5.44922
11.035	5.36133
11.04	5.36133
11.045	5.36133
11.05	5.27344
11.055	5.27344
11.06	5.27344
11.065	5.27344
11.07	5.27344
11.075	5.27344
11.08	5.27344
11.085	5.27344
11.09	5.27344
11.095	5.27344
11.1	5.27344
11.105	5.27344
11.11	5.27344
11.115	5.27344
11.12	5.27344
11.125	5.27344
11.13	5.27344
11.135	5.27344
11.14	5.27344
11.145	5.27344
11.15	5.27344
11.155	5.27344
11.16	5.27344
11.165	5.27344
11.17	5.27344
11.175	5.36133
11.18	5.36133
11.185	5.36133
11.19	5.36133
11.195	5.36133
11.2	5.36133
11.205	5.36133
11.21	5.36133
11.215	5.36133
11.22	5.36133
11.225	5.36133
11.23	5.36133
11.235	5.36133
11.24	5.36133
11.245	5.44922
11.25	5.44922
11.255	5.44922
11.26	5.44922
11.265	5.44922
11.27	5.44922
11.275	5.44922
11.28	5.44922
11.285	5.44922
11.29	5.44922
11.295	5.53711
11.3	5.44922
11.305	5.44922
11.31	5.44922
11.315	5.53711
11.32	5.53711
11.325	5.53711
11.33	5.53711
11.335	5.53711
11.34	5.53711
11.345	5.53711
11.35	5.53711
11.355	5.53711
11.36	5.53711
11.365	5.53711
11.37	5.53711
11.375	5.53711
11.38	5.53711
11.385	5.53711
11.39	5.53711
11.395	5.53711
11.4	5.53711
11.405	5.53711
11.41	5.53711
11.415	5.53711
11.42	5.53711
11.425	5.53711
11.43	5.53711
11.435	5.53711
11.44	5.53711
11.445	5.53711
11.45	5.53711
11.455	5.44922
11.46	5.44922
11.465	5.44922
11.47	5.44922
11.475	5.44922
11.48	5.44922
11.485	5.44922
11.49	5.44922
11.495	5.44922
11.5	5.44922
11.505	5.44922
11.51	5.44922
11.515	5.44922
11.52	5.44922
11.525	5.36133
11.53	5.36133
11.535	5.44922
11.54	5.36133
11.545	5.36133
11.55	5.36133
11.555	5.36133
11.56	5.27344
11.565	5.27344
11.57	5.27344
11.575	5.27344
11.58	5.27344
11.585	5.27344
11.59	5.27344
11.595	5.27344
11.6	5.27344
11.605	5.27344
11.61	5.27344
11.615	5.27344
11.62	5.27344
11.625	5.27344
11.63	5.18555
11.635	5.18555
11.64	5.18555
11.645	5.18555
11.65	5.18555
11.655	5.18555
11.66	5.18555
11.665	5.18555
11.67	5.18555
11.675	5.18555
11.68	5.18555
11.685	5.09766
11.69	5.09766
11.695	5.09766
11.7	5.09766
11.705	5.09766
11.71	5.09766
11.715	5.09766
11.72	5.09766
11.725	5.09766
11.73	5.09766
11.735	5.09766
11.74	5.09766
11.745	5.09766
11.75	5.09766
11.755	5.09766
11.76	5.09766
11.765	5.09766
11.77	5.09766
11.775	5.09766
11.78	5.09766
11.785	5.09766
11.79	5.09766
11.795	5.09766
11.8	5.00977
11.805	5.00977
11.81	5.09766
11.815	5.09766
11.82	5.09766
11.825	5.09766
11.83	5.09766
11.835	5.09766
11.84	5.00977
11.845	5.09766
11.85	5.09766
11.855	5.09766
11.86	5.09766
11.865	5.09766
11.87	5.09766
11.875	5.09766
11.88	5.09766
11.885	5.09766
11.89	5.09766
11.895	5.09766
11.9	5.09766
11.905	5.09766
11.91	5.00977
11.915	5.00977
11.92	5.00977
11.925	5.00977
11.93	5.00977
11.935	5.00977
11.94	5.00977
11.945	5.09766
11.95	5.09766
11.955	5.09766
11.96	5.09766
11.965	5.09766
11.97	5.09766
11.975	5.09766
11.98	5.09766
11.985	5.09766
11.99	5.09766
11.995	5.09766
12	5.09766
12.005	5.09766
12.01	5.09766
12.015	5.09766
12.02	5.09766
12.025	5.09766
12.03	5.09766
12.035	5.09766
12.04	5.09766
12.045	5.09766
12.05	5.09766
12.055	5.09766
12.06	5.09766
12.065	5.09766
12.07	5.09766
12.075	5.09766
12.08	5.09766
12.085	5.09766
12.09	5.09766
12.095	5.09766
12.1	5.09766
12.105	5.09766
12.11	5.09766
12.115	5.09766
12.12	5.09766
12.125	5.09766
12.13	5.09766
12.135	5.09766
12.14	5.09766
12.145	5.09766
12.15	5.09766
12.155	5.09766
12.16	5.18555
12.165	5.18555
12.17	5.18555
12.175	5.18555
12.18	5.09766
12.185	5.18555
12.19	5.18555
12.195	5.09766
12.2	5.09766
12.205	5.09766
12.21	5.09766
12.215	5.09766
12.22	5.09766
12.225	5.09766
12.23	5.18555
12.235	5.18555
12.24	5.18555
12.245	5.18555
12.25	5.18555
12.255	5.18555
12.26	5.18555
12.265	5.18555
12.27	5.18555
12.275	5.18555
12.28	5.18555
12.285	5.18555
12.29	5.18555
12.295	5.18555
12.3	5.18555
12.305	5.18555
12.31	5.18555
12.315	5.18555
12.32	5.18555
12.325	5.18555
12.33	5.18555
12.335	5.18555
12.34	5.18555
12.345	5.18555
12.35	5.18555
12.355	5.18555
12.36	5.27344
12.365	5.27344
12.37	5.27344
12.375	5.18555
12.38	5.18555
12.385	5.18555
12.39	5.18555
12.395	5.18555
12.4	5.18555
12.405	5.18555
12.41	5.18555
12.415	5.27344
12.42	5.27344
12.425	5.27344
12.43	5.27344
12.435	5.27344
12.44	5.27344
12.445	5.27344
12.45	5.27344
12.455	5.27344
12.46	5.27344
12.465	5.27344
12.47	5.27344
12.475	5.27344
12.48	5.27344
12.485	5.27344
12.49	5.27344
12.495	5.27344
12.5	5.27344
12.505	5.27344
12.51	5.27344
12.515	5.36133
12.52	5.36133
12.525	5.36133
12.53	5.36133
12.535	5.36133
12.54	5.36133
12.545	5.36133
12.55	5.27344
12.555	5.27344
12.56	5.27344
12.565	5.27344
12.57	5.27344
12.575	5.27344
12.58	5.27344
12.585	5.27344
12.59	5.27344
12.595	5.27344
12.6	5.36133
12.605	5.36133
12.61	5.36133
12.615	5.36133
12.62	5.36133
12.625	5.36133
12.63	5.36133
12.635	5.36133
12.64	5.36133
12.645	5.36133
12.65	5.36133
12.655	5.27344
12.66	5.27344
12.665	5.27344
12.67	5.27344
12.675	5.27344
12.68	5.27344
12.685	5.27344
12.69	5.27344
12.695	5.27344
12.7	5.36133
12.705	5.36133
12.71	5.36133
12.715	5.36133
12.72	5.36133
12.725	5.36133
12.73	5.36133
12.735	5.36133
12.74	5.36133
12.745	5.36133
12.75	5.36133
12.755	5.27344
12.76	5.27344
12.765	5.27344
12.77	5.27344
12.775	5.27344
12.78	5.27344
12.785	5.36133
12.79	5.36133
12.795	5.36133
12.8	5.36133
12.805	5.36133
12.81	5.36133
12.815	5.36133
12.82	5.36133
12.825	5.27344
12.83	5.36133
12.835	5.36133
12.84	5.27344
12.845	5.27344
12.85	5.27344
12.855	5.27344
12.86	5.27344
12.865	5.36133
12.87	5.27344
12.875	5.27344
12.88	5.36133
12.885	5.36133
12.89	5.36133
12.895	5.36133
12.9	5.36133
12.905	5.36133
12.91	5.36133
12.915	5.36133
12.92	5.36133
12.925	5.36133
12.93	5.36133
12.935	5.36133
12.94	5.36133
12.945	5.36133
12.95	5.36133
12.955	5.36133
12.96	5.36133
12.965	5.36133
12.97	5.36133
12.975	5.36133
12.98	5.36133
12.985	5.36133
12.99	5.36133
12.995	5.36133
13	5.36133
13.005	5.36133
13.01	5.36133
13.015	5.36133
13.02	5.36133
13.025	5.36133
13.03	5.36133
13.035	5.36133
13.04	5.36133
13.045	5.36133
13.05	5.36133
13.055	5.36133
13.06	5.36133
13.065	5.36133
13.07	5.36133
13.075	5.36133
13.08	5.44922
13.085	5.44922
13.09	5.44922
13.095	5.44922
13.1	5.44922
13.105	5.44922
13.11	5.44922
13.115	5.44922
13.12	5.44922
13.125	5.44922
13.13	5.44922
13.135	5.44922
13.14	5.44922
13.145	5.44922
13.15	5.44922
13.155	5.44922
13.16	5.53711
13.165	5.53711
13.17	5.53711
13.175	5.53711
13.18	5.53711
13.185	5.53711
13.19	5.53711
13.195	5.53711
13.2	5.53711
13.205	5.53711
13.21	5.53711
13.215	5.53711
13.22	5.53711
13.225	5.53711
13.23	5.625
13.235	5.625
13.24	5.625
13.245	5.625
13.25	5.625
13.255	5.625
13.26	5.625
13.265	5.625
13.27	5.625
13.275	5.625
13.28	5.625
13.285	5.625
13.29	5.625
13.295	5.625
13.3	5.625
13.305	5.625
13.31	5.625
13.315	5.625
13.32	5.625
13.325	5.625
13.33	5.625
13.335	5.625
13.34	5.625
13.345	5.625
13.35	5.625
13.355	5.625
13.36	5.625
13.365	5.625
13.37	5.625
13.375	5.625
13.38	5.625
13.385	5.625
13.39	5.625
13.395	5.625
13.4	5.625
13.405	5.625
13.41	5.625
13.415	5.625
13.42	5.625
13.425	5.625
13.43	5.625
13.435	5.625
13.44	5.625
13.445	5.625
13.45	5.625
13.455	5.625
13.46	5.625
13.465	5.625
13.47	5.625
13.475	5.625
13.48	5.625
13.485	5.625
13.49	5.625
13.495	5.625
13.5	5.625
13.505	5.625
13.51	5.625
13.515	5.625
13.52	5.625
13.525	5.625
13.53	5.625
13.535	5.625
13.54	5.625
13.545	5.625
13.55	5.625
13.555	5.625
13.56	5.625
13.565	5.625
13.57	5.625
13.575	5.625
13.58	5.625
13.585	5.625
13.59	5.625
13.595	5.625
13.6	5.625
13.605	5.625
13.61	5.625
13.615	5.625
13.62	5.625
13.625	5.625
13.63	5.625
13.635	5.625
13.64	5.625
13.645	5.625
13.65	5.625
13.655	5.625
13.66	5.625
13.665	5.625
13.67	5.625
13.675	5.625
13.68	5.625
13.685	5.625
13.69	5.625
13.695	5.625
13.7	5.625
13.705	5.625
13.71	5.625
13.715	5.625
13.72	5.625
13.725	5.625
13.73	5.625
13.735	5.625
13.74	5.625
13.745	5.625
13.75	5.625
13.755	5.625
13.76	5.625
13.765	5.625
13.77	5.625
13.775	5.625
13.78	5.625
13.785	5.625
13.79	5.625
13.795	5.625
13.8	5.625
13.805	5.625
13.81	5.625
13.815	5.625
13.82	5.71289
13.825	5.71289
13.83	5.71289
13.835	5.71289
13.84	5.71289
13.845	5.71289
13.85	5.71289
13.855	5.71289
13.86	5.71289
13.865	5.71289
13.87	5.71289
13.875	5.71289
13.88	5.71289
13.885	5.71289
13.89	5.71289
13.895	5.71289
13.9	5.71289
13.905	5.71289
13.91	5.71289
13.915	5.71289
13.92	5.71289
13.925	5.71289
13.93	5.80078
13.935	5.80078
13.94	5.80078
13.945	5.80078
13.95	5.80078
13.955	5.80078
13.96	5.80078
13.965	5.80078
13.97	5.80078
13.975	5.80078
13.98	5.80078
13.985	5.80078
13.99	5.80078
13.995	5.80078
14	5.80078
14.005	5.80078
14.01	5.80078
14.015	5.80078
14.02	5.80078
14.025	5.80078
14.03	5.80078
14.035	5.80078
14.04	5.80078
14.045	5.80078
14.05	5.80078
14.055	5.80078
14.06	5.80078
14.065	5.80078
14.07	5.80078
14.075	5.80078
14.08	5.80078
14.085	5.80078
14.09	5.80078
14.095	5.80078
14.1	5.80078
14.105	5.80078
14.11	5.80078
14.115	5.80078
14.12	5.80078
14.125	5.80078
14.13	5.80078
14.135	5.80078
14.14	5.80078
14.145	5.88867
14.15	5.80078
14.155	5.80078
14.16	5.80078
14.165	5.80078
14.17	5.88867
14.175	5.80078
14.18	5.80078
14.185	5.88867
14.19	5.88867
14.195	5.80078
14.2	5.88867
14.205	5.88867
14.21	5.88867
14.215	5.88867
14.22	5.88867
14.225	5.88867
14.23	5.88867
14.235	5.88867
14.24	5.88867
14.245	5.88867
14.25	5.88867
14.255	5.88867
14.26	5.88867
14.265	5.88867
14.27	5.88867
14.275	5.88867
14.28	5.88867
14.285	5.88867
14.29	5.88867
14.295	5.88867
14.3	5.88867
14.305	5.88867
14.31	5.88867
14.315	5.88867
14.32	5.88867
14.325	5.88867
14.33	5.88867
14.335	5.88867
14.34	5.88867
14.345	5.88867
14.35	5.88867
14.355	5.88867
14.36	5.88867
14.365	5.88867
14.37	5.88867
14.375	5.88867
14.38	5.88867
14.385	5.88867
14.39	5.88867
14.395	5.97656
14.4	5.97656
14.405	5.97656
14.41	5.97656
14.415	5.97656
14.42	5.88867
14.425	5.88867
14.43	5.88867
14.435	5.88867
14.44	5.88867
14.445	5.88867
14.45	5.88867
14.455	5.88867
14.46	5.88867
14.465	5.88867
14.47	5.88867
14.475	5.88867
14.48	5.97656
14.485	5.88867
14.49	5.97656
14.495	5.97656
14.5	5.97656
14.505	5.97656
14.51	5.97656
14.515	5.97656
14.52	5.97656
14.525	5.97656
14.53	5.97656
14.535	5.97656
14.54	5.97656
14.545	5.97656
14.55	5.97656
14.555	5.88867
14.56	5.97656
14.565	5.97656
14.57	5.97656
14.575	5.97656
14.58	5.97656
14.585	5.97656
14.59	5.97656
14.595	5.97656
14.6	5.97656
14.605	5.97656
14.61	5.97656
14.615	5.97656
14.62	5.97656
14.625	5.97656
14.63	5.97656
14.635	5.97656
14.64	5.97656
14.645	5.97656
14.65	5.97656
14.655	5.88867
14.66	5.88867
14.665	5.88867
14.67	5.88867
14.675	5.88867
14.68	5.97656
14.685	5.97656
14.69	5.88867
14.695	5.88867
14.7	5.88867
14.705	5.88867
14.71	5.88867
14.715	5.88867
14.72	5.88867
14.725	5.88867
14.73	5.88867
14.735	5.88867
14.74	5.88867
14.745	5.88867
14.75	5.88867
14.755	5.88867
14.76	5.88867
14.765	5.88867
14.77	5.88867
14.775	5.88867
14.78	5.88867
14.785	5.88867
14.79	5.88867
14.795	5.88867
14.8	5.88867
14.805	5.88867
14.81	5.88867
14.815	5.88867
14.82	5.88867
14.825	5.88867
14.83	5.80078
14.835	5.80078
14.84	5.80078
14.845	5.80078
14.85	5.80078
14.855	5.80078
14.86	5.80078
14.865	5.80078
14.87	5.80078
14.875	5.80078
14.88	5.80078
14.885	5.80078
14.89	5.80078
14.895	5.80078
14.9	5.80078
14.905	5.80078
14.91	5.80078
14.915	5.80078
14.92	5.80078
14.925	5.80078
14.93	5.80078
14.935	5.80078
14.94	5.80078
14.945	5.80078
14.95	5.80078
14.955	5.80078
14.96	5.80078
14.965	5.80078
14.97	5.80078
14.975	5.80078
14.98	5.80078
14.985	5.80078
14.99	5.80078
14.995	5.80078
15	5.80078
15.005	5.80078
15.01	5.80078
15.015	5.80078
15.02	5.80078
15.025	5.80078
15.03	5.80078
15.035	5.80078
15.04	5.80078
15.045	5.80078
15.05	5.80078
15.055	5.80078
15.06	5.80078
15.065	5.80078
15.07	5.80078
15.075	5.80078
15.08	5.80078
15.085	5.80078
15.09	5.80078
15.095	5.80078
15.1	5.80078
15.105	5.80078
15.11	5.80078
15.115	5.80078
15.12	5.80078
15.125	5.80078
15.13	5.80078
15.135	5.80078
15.14	5.80078
15.145	5.80078
15.15	5.80078
15.155	5.80078
15.16	5.80078
15.165	5.80078
15.17	5.80078
15.175	5.80078
15.18	5.71289
15.185	5.71289
15.19	5.71289
15.195	5.71289
15.2	5.71289
15.205	5.71289
15.21	5.71289
15.215	5.625
15.22	5.71289
15.225	5.625
15.23	5.53711
15.235	5.625
15.24	5.53711
15.245	5.53711
15.25	5.53711
15.255	5.53711
15.26	5.44922
15.265	5.44922
15.27	5.44922
15.275	5.44922
15.28	5.44922
15.285	5.36133
15.29	5.36133
15.295	5.36133
15.3	5.27344
15.305	5.27344
15.31	5.27344
15.315	5.27344
15.32	5.27344
15.325	5.27344
15.33	5.27344
15.335	5.27344
15.34	5.27344
15.345	5.18555
15.35	5.18555
15.355	5.09766
15.36	5.09766
15.365	5.09766
15.37	5.09766
15.375	5.18555
15.38	5.18555
15.385	5.18555
15.39	5.18555
15.395	5.18555
15.4	5.18555
15.405	5.09766
15.41	5.09766
15.415	5.09766
15.42	5.18555
15.425	5.09766
15.43	5.09766
15.435	5.09766
15.44	5.09766
15.445	5.00977
15.45	5.00977
15.455	4.92188
15.46	4.92188
15.465	5.00977
15.47	4.92188
15.475	4.92188
15.48	4.92188
15.485	4.92188
15.49	4.83398
15.495	4.74609
15.5	4.74609
15.505	4.74609
15.51	4.74609
15.515	4.6582
15.52	4.57031
15.525	4.57031
15.53	4.57031
15.535	4.48242
15.54	4.48242
15.545	4.30664
15.55	4.30664
15.555	4.21875
15.56	4.21875
15.565	4.21875
15.57	4.04297
15.575	4.04297
15.58	4.04297
15.585	3.86719
15.59	3.86719
15.595	3.86719
15.6	3.69141
15.605	3.69141
15.61	3.60352
15.615	3.60352
15.62	3.60352
15.625	3.51563
15.63	3.51563
15.635	3.33984
15.64	3.33984
15.645	3.33984
15.65	3.25195
15.655	3.25195
15.66	3.16406
15.665	3.07617
15.67	3.07617
15.675	3.07617
15.68	2.98828
15.685	3.07617
15.69	2.98828
15.695	2.98828
15.7	2.98828
15.705	2.90039
15.71	2.90039
15.715	2.90039
15.72	2.90039
15.725	2.8125
15.73	2.90039
15.735	2.90039
15.74	2.90039
15.745	2.90039
15.75	2.98828
15.755	2.98828
15.76	2.98828
15.765	2.98828
15.77	2.98828
15.775	2.98828
15.78	2.98828
15.785	2.98828
15.79	3.07617
15.795	3.16406
15.8	3.16406
15.805	3.25195
15.81	3.33984
15.815	3.33984
15.82	3.42773
15.825	3.42773
15.83	3.42773
15.835	3.51563
15.84	3.60352
15.845	3.60352
15.85	3.69141
15.855	3.69141
15.86	3.7793
15.865	3.86719
15.87	3.86719
15.875	3.95508
15.88	4.04297
15.885	4.13086
15.89	4.13086
15.895	4.21875
15.9	4.30664
15.905	4.30664
15.91	4.39453
15.915	4.48242
15.92	4.57031
15.925	4.57031
15.93	4.6582
15.935	4.6582
15.94	4.74609
15.945	4.74609
15.95	4.83398
15.955	4.83398
15.96	4.92188
15.965	4.92188
15.97	5.00977
15.975	5.09766
15.98	5.09766
15.985	5.18555
15.99	5.27344
15.995	5.27344
16	5.27344
16.005	5.36133
16.01	5.36133
16.015	5.36133
16.02	5.44922
16.025	5.44922
16.03	5.44922
16.035	5.44922
16.04	5.53711
16.045	5.53711
16.05	5.53711
16.055	5.625
16.06	5.625
16.065	5.625
16.07	5.625
16.075	5.625
16.08	5.625
16.085	5.625
16.09	5.625
16.095	5.625
16.1	5.625
16.105	5.625
16.11	5.625
16.115	5.625
16.12	5.625
16.125	5.625
16.13	5.625
16.135	5.625
16.14	5.625
16.145	5.625
16.15	5.625
16.155	5.625
16.16	5.625
16.165	5.625
16.17	5.625
16.175	5.625
16.18	5.625
16.185	5.625
16.19	5.625
16.195	5.625
16.2	5.625
16.205	5.625
16.21	5.625
16.215	5.53711
16.22	5.625
16.225	5.53711
16.23	5.53711
16.235	5.53711
16.24	5.53711
16.245	5.625
16.25	5.625
16.255	5.53711
16.26	5.625
16.265	5.625
16.27	5.625
16.275	5.625
16.28	5.625
16.285	5.625
16.29	5.625
16.295	5.625
16.3	5.625
16.305	5.625
16.31	5.625
16.315	5.625
16.32	5.625
16.325	5.71289
16.33	5.71289
16.335	5.71289
16.34	5.71289
16.345	5.71289
16.35	5.71289
16.355	5.80078
16.36	5.80078
16.365	5.80078
16.37	5.80078
16.375	5.80078
16.38	5.88867
16.385	5.88867
16.39	5.88867
16.395	5.88867
16.4	5.88867
16.405	5.97656
16.41	5.97656
16.415	5.97656
16.42	5.97656
16.425	6.06445
16.43	6.06445
16.435	6.06445
16.44	6.06445
16.445	6.06445
16.45	6.15234
16.455	6.15234
16.46	6.15234
16.465	6.15234
16.47	6.24023
16.475	6.24023
16.48	6.24023
16.485	6.24023
16.49	6.32812
16.495	6.32812
16.5	6.32812
16.505	6.32812
16.51	6.32812
16.515	6.32812
16.52	6.32812
16.525	6.41602
16.53	6.41602
16.535	6.41602
16.54	6.41602
16.545	6.41602
16.55	6.41602
16.555	6.41602
16.56	6.41602
16.565	6.50391
16.57	6.50391
16.575	6.50391
16.58	6.50391
16.585	6.50391
16.59	6.50391
16.595	6.50391
16.6	6.50391
16.605	6.50391
16.61	6.50391
16.615	6.50391
16.62	6.50391
16.625	6.50391
16.63	6.50391
16.635	6.50391
16.64	6.5918
16.645	6.5918
16.65	6.5918
16.655	6.5918
16.66	6.5918
16.665	6.5918
16.67	6.5918
16.675	6.5918
16.68	6.5918
16.685	6.5918
16.69	6.5918
16.695	6.5918
16.7	6.5918
16.705	6.5918
16.71	6.5918
16.715	6.5918
16.72	6.5918
16.725	6.5918
16.73	6.5918
16.735	6.5918
16.74	6.5918
16.745	6.5918
16.75	6.5918
16.755	6.5918
16.76	6.5918
16.765	6.5918
16.77	6.5918
16.775	6.5918
16.78	6.50391
16.785	6.5918
16.79	6.50391
16.795	6.5918
16.8	6.50391
16.805	6.50391
16.81	6.50391
16.815	6.50391
16.82	6.50391
16.825	6.50391
16.83	6.50391
16.835	6.50391
16.84	6.50391
16.845	6.50391
16.85	6.50391
16.855	6.50391
16.86	6.50391
16.865	6.41602
16.87	6.41602
16.875	6.41602
16.88	6.41602
16.885	6.41602
16.89	6.41602
16.895	6.41602
16.9	6.41602
16.905	6.41602
16.91	6.41602
16.915	6.41602
16.92	6.32812
16.925	6.32812
16.93	6.32812
16.935	6.32812
16.94	6.32812
16.945	6.32812
16.95	6.32812
16.955	6.32812
16.96	6.32812
16.965	6.32812
16.97	6.32812
16.975	6.32812
16.98	6.32812
16.985	6.32812
16.99	6.32812
16.995	6.32812
17	6.32812
17.005	6.32812
17.01	6.32812
17.015	6.32812
17.02	6.24023
17.025	6.32812
17.03	6.32812
17.035	6.24023
17.04	6.32812
17.045	6.24023
17.05	6.24023
17.055	6.32812
17.06	6.24023
17.065	6.24023
17.07	6.24023
17.075	6.24023
17.08	6.24023
17.085	6.24023
17.09	6.24023
17.095	6.24023
17.1	6.24023
17.105	6.24023
17.11	6.24023
17.115	6.24023
17.12	6.24023
17.125	6.24023
17.13	6.24023
17.135	6.24023
17.14	6.24023
17.145	6.24023
17.15	6.24023
17.155	6.24023
17.16	6.24023
17.165	6.24023
17.17	6.24023
17.175	6.24023
17.18	6.24023
17.185	6.24023
17.19	6.24023
17.195	6.24023
17.2	6.24023
17.205	6.24023
17.21	6.24023
17.215	6.24023
17.22	6.24023
17.225	6.24023
17.23	6.24023
17.235	6.24023
17.24	6.24023
17.245	6.24023
17.25	6.15234
17.255	6.15234
17.26	6.15234
17.265	6.15234
17.27	6.15234
17.275	6.15234
17.28	6.15234
17.285	6.15234
17.29	6.15234
17.295	6.15234
17.3	6.15234
17.305	6.15234
17.31	6.15234
17.315	6.15234
17.32	6.15234
17.325	6.15234
17.33	6.15234
17.335	6.06445
17.34	6.06445
17.345	6.06445
17.35	6.06445
17.355	6.06445
17.36	6.06445
17.365	6.06445
17.37	6.06445
17.375	6.06445
17.38	5.97656
17.385	6.06445
17.39	5.97656
17.395	5.97656
17.4	5.97656
17.405	5.97656
17.41	5.97656
17.415	5.97656
17.42	5.97656
17.425	5.97656
17.43	5.97656
17.435	5.97656
17.44	5.88867
17.445	5.97656
17.45	5.88867
17.455	5.88867
17.46	5.88867
17.465	5.88867
17.47	5.88867
17.475	5.88867
17.48	5.88867
17.485	5.88867
17.49	5.88867
17.495	5.88867
17.5	5.88867
17.505	5.88867
17.51	5.80078
17.515	5.88867
17.52	5.80078
17.525	5.80078
17.53	5.80078
17.535	5.80078
17.54	5.80078
17.545	5.80078
17.55	5.80078
17.555	5.80078
17.56	5.80078
17.565	5.80078
17.57	5.80078
17.575	5.80078
17.58	5.80078
17.585	5.80078
17.59	5.80078
17.595	5.80078
17.6	5.71289
17.605	5.71289
17.61	5.71289
17.615	5.71289
17.62	5.71289
17.625	5.71289
17.63	5.71289
17.635	5.71289
17.64	5.71289
17.645	5.71289
17.65	5.71289
17.655	5.71289
17.66	5.625
17.665	5.71289
17.67	5.625
17.675	5.71289
17.68	5.625
17.685	5.625
17.69	5.625
17.695	5.625
17.7	5.625
17.705	5.625
17.71	5.625
17.715	5.625
17.72	5.625
17.725	5.625
17.73	5.625
17.735	5.625
17.74	5.625
17.745	5.625
17.75	5.625
17.755	5.625
17.76	5.625
17.765	5.625
17.77	5.625
17.775	5.625
17.78	5.625
17.785	5.625
17.79	5.625
17.795	5.625
17.8	5.625
17.805	5.625
17.81	5.625
17.815	5.625
17.82	5.625
17.825	5.625
17.83	5.625
17.835	5.625
17.84	5.625
17.845	5.625
17.85	5.625
17.855	5.625
17.86	5.625
17.865	5.625
17.87	5.625
17.875	5.625
17.88	5.625
17.885	5.625
17.89	5.625
17.895	5.53711
17.9	5.625
17.905	5.53711
17.91	5.53711
17.915	5.53711
17.92	5.625
17.925	5.53711
17.93	5.625
17.935	5.53711
17.94	5.53711
17.945	5.625
17.95	5.53711
17.955	5.625
17.96	5.53711
17.965	5.625
17.97	5.53711
17.975	5.53711
17.98	5.625
17.985	5.53711
17.99	5.625
17.995	5.625
18	5.53711
18.005	5.625
18.01	5.625
18.015	5.625
18.02	5.625
18.025	5.625
18.03	5.625
18.035	5.625
18.04	5.625
18.045	5.625
18.05	5.625
18.055	5.625
18.06	5.625
18.065	5.625
18.07	5.625
18.075	5.625
18.08	5.625
18.085	5.625
18.09	5.625
18.095	5.625
18.1	5.625
18.105	5.625
18.11	5.625
18.115	5.625
18.12	5.625
18.125	5.625
18.13	5.625
18.135	5.625
18.14	5.625
18.145	5.625
18.15	5.625
18.155	5.625
18.16	5.625
18.165	5.625
18.17	5.625
18.175	5.625
18.18	5.625
18.185	5.625
18.19	5.625
18.195	5.625
18.2	5.625
18.205	5.625
18.21	5.625
18.215	5.625
18.22	5.625
18.225	5.625
18.23	5.625
18.235	5.625
18.24	5.625
18.245	5.625
18.25	5.625
18.255	5.625
18.26	5.625
18.265	5.625
18.27	5.625
18.275	5.625
18.28	5.625
18.285	5.625
18.29	5.625
18.295	5.71289
18.3	5.625
18.305	5.71289
18.31	5.625
18.315	5.71289
18.32	5.71289
18.325	5.625
18.33	5.71289
18.335	5.71289
18.34	5.71289
18.345	5.71289
18.35	5.71289
18.355	5.71289
18.36	5.71289
18.365	5.71289
18.37	5.71289
18.375	5.71289
18.38	5.71289
18.385	5.71289
18.39	5.71289
18.395	5.71289
18.4	5.71289
18.405	5.71289
18.41	5.71289
18.415	5.71289
18.42	5.71289
18.425	5.71289
18.43	5.71289
18.435	5.71289
18.44	5.71289
18.445	5.71289
18.45	5.71289
18.455	5.71289
18.46	5.71289
18.465	5.71289
18.47	5.80078
18.475	5.71289
18.48	5.80078
18.485	5.80078
18.49	5.80078
18.495	5.80078
18.5	5.80078
18.505	5.80078
18.51	5.80078
18.515	5.80078
18.52	5.80078
18.525	5.80078
18.53	5.80078
18.535	5.80078
18.54	5.80078
18.545	5.80078
18.55	5.80078
18.555	5.80078
18.56	5.80078
18.565	5.80078
18.57	5.80078
18.575	5.80078
18.58	5.80078
18.585	5.80078
18.59	5.80078
18.595	5.80078
18.6	5.88867
18.605	5.88867
18.61	5.88867
18.615	5.88867
18.62	5.88867
18.625	5.88867
18.63	5.88867
18.635	5.88867
18.64	5.88867
18.645	5.88867
18.65	5.88867
18.655	5.88867
18.66	5.88867
18.665	5.97656
18.67	5.97656
18.675	5.88867
18.68	5.97656
18.685	5.97656
18.69	5.97656
18.695	5.97656
18.7	5.97656
18.705	5.97656
18.71	5.97656
18.715	5.97656
18.72	5.97656
18.725	5.97656
18.73	5.97656
18.735	5.97656
18.74	5.97656
18.745	5.97656
18.75	5.97656
18.755	6.06445
18.76	5.97656
18.765	6.06445
18.77	6.06445
18.775	6.06445
18.78	6.06445
18.785	6.06445
18.79	6.06445
18.795	6.06445
18.8	6.06445
18.805	6.06445
18.81	6.06445
18.815	6.06445
18.82	6.06445
18.825	6.06445
18.83	6.06445
18.835	6.06445
18.84	6.06445
18.845	6.06445
18.85	6.06445
18.855	6.06445
18.86	6.15234
18.865	6.15234
18.87	6.15234
18.875	6.15234
18.88	6.15234
18.885	6.15234
18.89	6.15234
18.895	6.15234
18.9	6.15234
18.905	6.15234
18.91	6.15234
18.915	6.15234
18.92	6.15234
18.925	6.15234
18.93	6.15234
18.935	6.15234
18.94	6.15234
18.945	6.15234
18.95	6.15234
18.955	6.15234
18.96	6.15234
18.965	6.15234
18.97	6.06445
18.975	6.15234
18.98	6.15234
18.985	6.06445
18.99	6.15234
18.995	6.15234
19	6.06445
19.005	6.15234
19.01	6.06445
19.015	6.06445
19.02	6.15234
19.025	6.06445
19.03	6.15234
19.035	6.06445
19.04	6.06445
19.045	6.15234
19.05	6.06445
19.055	6.06445
19.06	6.06445
19.065	6.06445
19.07	6.06445
19.075	6.06445
19.08	6.06445
19.085	6.06445
19.09	6.06445
19.095	6.06445
19.1	6.06445
19.105	6.06445
19.11	6.06445
19.115	6.06445
19.12	6.06445
19.125	6.06445
19.13	6.06445
19.135	6.06445
19.14	6.06445
19.145	6.06445
19.15	6.06445
19.155	6.06445
19.16	6.06445
19.165	6.06445
19.17	6.06445
19.175	6.06445
19.18	6.06445
19.185	6.15234
19.19	6.15234
19.195	6.06445
19.2	6.15234
19.205	6.06445
19.21	6.15234
19.215	6.15234
19.22	6.06445
19.225	6.15234
19.23	6.15234
19.235	6.15234
19.24	6.15234
19.245	6.15234
19.25	6.15234
19.255	6.15234
19.26	6.15234
19.265	6.15234
19.27	6.15234
19.275	6.15234
19.28	6.15234
19.285	6.15234
19.29	6.24023
19.295	6.24023
19.3	6.15234
19.305	6.24023
19.31	6.24023
19.315	6.24023
19.32	6.24023
19.325	6.24023
19.33	6.24023
19.335	6.24023
19.34	6.24023
19.345	6.24023
19.35	6.24023
19.355	6.24023
19.36	6.24023
19.365	6.24023
19.37	6.24023
19.375	6.24023
19.38	6.24023
19.385	6.24023
19.39	6.32812
19.395	6.32812
19.4	6.32812
19.405	6.32812
19.41	6.32812
19.415	6.32812
19.42	6.32812
19.425	6.32812
19.43	6.32812
19.435	6.32812
19.44	6.32812
19.445	6.32812
19.45	6.32812
19.455	6.32812
19.46	6.32812
19.465	6.32812
19.47	6.32812
19.475	6.32812
19.48	6.32812
19.485	6.32812
19.49	6.32812
19.495	6.32812
19.5	6.32812
19.505	6.32812
19.51	6.32812
19.515	6.32812
19.52	6.32812
19.525	6.32812
19.53	6.32812
19.535	6.32812
19.54	6.32812
19.545	6.32812
19.55	6.24023
19.555	6.32812
19.56	6.32812
19.565	6.24023
19.57	6.32812
19.575	6.32812
19.58	6.24023
19.585	6.24023
19.59	6.24023
19.595	6.24023
19.6	6.24023
19.605	6.24023
19.61	6.24023
19.615	6.24023
19.62	6.24023
19.625	6.24023
19.63	6.24023
19.635	6.24023
19.64	6.24023
19.645	6.24023
19.65	6.24023
19.655	6.24023
19.66	6.24023
19.665	6.24023
19.67	6.24023
19.675	6.24023
19.68	6.24023
19.685	6.24023
19.69	6.24023
19.695	6.24023
19.7	6.24023
19.705	6.24023
19.71	6.24023
19.715	6.15234
19.72	6.24023
19.725	6.15234
19.73	6.15234
19.735	6.15234
19.74	6.15234
19.745	6.15234
19.75	6.15234
19.755	6.15234
19.76	6.15234
19.765	6.15234
19.77	6.15234
19.775	6.15234
19.78	6.15234
19.785	6.15234
19.79	6.15234
19.795	6.15234
19.8	6.15234
19.805	6.15234
19.81	6.15234
19.815	6.15234
19.82	6.15234
19.825	6.15234
19.83	6.15234
19.835	6.15234
19.84	6.15234
19.845	6.15234
19.85	6.15234
19.855	6.15234
19.86	6.15234
19.865	6.06445
19.87	6.15234
19.875	6.06445
19.88	6.15234
19.885	6.06445
19.89	6.15234
19.895	6.06445
19.9	6.06445
19.905	6.15234
19.91	6.06445
19.915	6.15234
19.92	6.06445
19.925	6.06445
19.93	6.06445
19.935	6.06445
19.94	6.06445
19.945	6.06445
19.95	6.06445
19.955	6.06445
19.96	6.06445
19.965	6.06445
19.97	6.06445
19.975	6.06445
19.98	6.06445
19.985	6.06445
19.99	6.06445
19.995	6.06445
20	6.06445
20.005	6.06445
20.01	6.06445
20.015	6.06445
20.02	6.06445
20.025	6.06445
20.03	6.15234
20.035	6.15234
20.04	6.06445
20.045	6.15234
20.05	6.06445
20.055	6.15234
20.06	6.06445
20.065	6.06445
20.07	6.06445
20.075	6.06445
20.08	6.06445
20.085	6.06445
20.09	6.06445
20.095	6.06445
20.1	6.06445
20.105	6.06445
20.11	6.06445
20.115	6.06445
20.12	6.06445
20.125	5.97656
20.13	5.97656
20.135	5.97656
20.14	5.97656
20.145	5.88867
20.15	5.88867
20.155	5.88867
20.16	5.88867
20.165	5.80078
20.17	5.80078
20.175	5.80078
20.18	5.71289
20.185	5.71289
20.19	5.625
20.195	5.53711
20.2	5.53711
20.205	5.44922
20.21	5.44922
20.215	5.44922
20.22	5.36133
20.225	5.36133
20.23	5.27344
20.235	5.18555
20.24	5.18555
20.245	5.09766
20.25	5.00977
20.255	5.00977
20.26	4.92188
20.265	4.92188
20.27	4.83398
20.275	4.83398
20.28	4.74609
20.285	4.6582
20.29	4.6582
20.295	4.57031
20.3	4.48242
20.305	4.48242
20.31	4.39453
20.315	4.39453
20.32	4.39453
20.325	4.30664
20.33	4.30664
20.335	4.21875
20.34	4.21875
20.345	4.21875
20.35	4.13086
20.355	4.13086
20.36	4.13086
20.365	4.04297
20.37	4.04297
20.375	4.04297
20.38	4.04297
20.385	4.04297
20.39	4.04297
20.395	4.04297
20.4	4.04297
20.405	4.04297
20.41	4.04297
20.415	4.13086
20.42	4.04297
20.425	4.13086
20.43	4.13086
20.435	4.13086
20.44	4.13086
20.445	4.21875
20.45	4.21875
20.455	4.21875
20.46	4.30664
20.465	4.30664
20.47	4.48242
20.475	4.48242
20.48	4.48242
20.485	4.6582
20.49	4.74609
20.495	4.74609
20.5	4.92188
20.505	5.00977
20.51	5.00977
20.515	5.18555
20.52	5.27344
20.525	5.27344
20.53	5.53711
20.535	5.625
20.54	5.625
20.545	5.88867
20.55	5.97656
20.555	6.24023
20.56	6.24023
20.565	6.32812
20.57	6.41602
20.575	6.50391
20.58	6.5918
20.585	6.85547
20.59	6.76758
20.595	6.85547
20.6	7.03125
20.605	7.03125
20.61	7.11914
20.615	7.20703
20.62	7.29492
20.625	7.29492
20.63	7.38281
20.635	7.4707
20.64	7.55859
20.645	7.55859
20.65	7.55859
20.655	7.64648
20.66	7.73437
20.665	7.73437
20.67	7.73437
20.675	7.73437
20.68	7.73437
20.685	7.73437
20.69	7.73437
20.695	7.73437
20.7	7.73437
20.705	7.73437
20.71	7.73437
20.715	7.73437
20.72	7.73437
20.725	7.73437
20.73	7.64648
20.735	7.64648
20.74	7.64648
20.745	7.55859
20.75	7.55859
20.755	7.55859
20.76	7.4707
20.765	7.4707
20.77	7.29492
20.775	7.20703
20.78	7.20703
20.785	7.11914
20.79	7.11914
20.795	7.03125
20.8	6.94336
20.805	6.94336
20.81	6.85547
20.815	6.85547
20.82	6.76758
20.825	6.67969
20.83	6.5918
20.835	6.50391
20.84	6.41602
20.845	6.41602
20.85	6.32812
20.855	6.32812
20.86	6.24023
20.865	6.15234
20.87	6.15234
20.875	6.06445
20.88	6.06445
20.885	5.97656
20.89	5.97656
20.895	5.88867
20.9	5.88867
20.905	5.88867
20.91	5.80078
20.915	5.71289
20.92	5.71289
20.925	5.625
20.93	5.625
20.935	5.53711
20.94	5.53711
20.945	5.44922
20.95	5.44922
20.955	5.44922
20.96	5.36133
20.965	5.36133
20.97	5.36133
20.975	5.27344
20.98	5.27344
20.985	5.27344
20.99	5.27344
20.995	5.18555
21	5.18555
21.005	5.18555
21.01	5.18555
21.015	5.18555
21.02	5.18555
21.025	5.18555
21.03	5.18555
21.035	5.18555
21.04	5.18555
21.045	5.18555
21.05	5.18555
21.055	5.18555
21.06	5.18555
21.065	5.18555
21.07	5.27344
21.075	5.27344
21.08	5.27344
21.085	5.27344
21.09	5.27344
21.095	5.27344
21.1	5.27344
21.105	5.36133
21.11	5.36133
21.115	5.36133
21.12	5.36133
21.125	5.36133
21.13	5.36133
21.135	5.36133
21.14	5.36133
21.145	5.36133
21.15	5.36133
21.155	5.36133
21.16	5.44922
21.165	5.44922
21.17	5.44922
21.175	5.44922
21.18	5.44922
21.185	5.53711
21.19	5.53711
21.195	5.53711
21.2	5.53711
21.205	5.53711
21.21	5.53711
21.215	5.53711
21.22	5.53711
21.225	5.53711
21.23	5.625
21.235	5.625
21.24	5.625
21.245	5.625
21.25	5.625
21.255	5.71289
21.26	5.71289
21.265	5.71289
21.27	5.71289
21.275	5.71289
21.28	5.71289
21.285	5.71289
21.29	5.71289
21.295	5.71289
21.3	5.71289
21.305	5.71289
21.31	5.71289
21.315	5.71289
21.32	5.71289
21.325	5.71289
21.33	5.71289
21.335	5.71289
21.34	5.71289
21.345	5.71289
21.35	5.71289
21.355	5.71289
21.36	5.625
21.365	5.625
21.37	5.625
21.375	5.625
21.38	5.625
21.385	5.625
21.39	5.625
21.395	5.625
21.4	5.625
21.405	5.625
21.41	5.625
21.415	5.625
21.42	5.53711
21.425	5.53711
21.43	5.53711
21.435	5.53711
21.44	5.53711
21.445	5.53711
21.45	5.53711
21.455	5.53711
21.46	5.53711
21.465	5.53711
21.47	5.53711
21.475	5.44922
21.48	5.44922
21.485	5.44922
21.49	5.44922
21.495	5.44922
21.5	5.44922
21.505	5.36133
21.51	5.36133
21.515	5.36133
21.52	5.36133
21.525	5.36133
21.53	5.36133
21.535	5.36133
21.54	5.36133
21.545	5.36133
21.55	5.36133
21.555	5.36133
21.56	5.36133
21.565	5.27344
21.57	5.27344
21.575	5.27344
21.58	5.27344
21.585	5.27344
21.59	5.27344
21.595	5.27344
21.6	5.27344
21.605	5.27344
21.61	5.27344
21.615	5.27344
21.62	5.27344
21.625	5.27344
21.63	5.27344
21.635	5.27344
21.64	5.27344
21.645	5.27344
21.65	5.27344
21.655	5.27344
21.66	5.27344
21.665	5.27344
21.67	5.18555
21.675	5.18555
21.68	5.18555
21.685	5.18555
21.69	5.18555
21.695	5.18555
21.7	5.18555
21.705	5.18555
21.71	5.18555
21.715	5.18555
21.72	5.18555
21.725	5.18555
21.73	5.18555
21.735	5.18555
21.74	5.18555
21.745	5.18555
21.75	5.18555
21.755	5.18555
21.76	5.18555
21.765	5.09766
21.77	5.09766
21.775	5.09766
21.78	5.09766
21.785	5.09766
21.79	5.09766
21.795	5.09766
21.8	5.09766
21.805	5.18555
21.81	5.18555
21.815	5.18555
21.82	5.18555
21.825	5.18555
21.83	5.18555
21.835	5.18555
21.84	5.18555
21.845	5.18555
21.85	5.18555
21.855	5.09766
21.86	5.09766
21.865	5.09766
21.87	5.09766
21.875	5.09766
21.88	5.18555
21.885	5.18555
21.89	5.18555
21.895	5.18555
21.9	5.18555
21.905	5.18555
21.91	5.18555
21.915	5.18555
21.92	5.18555
21.925	5.18555
21.93	5.18555
21.935	5.18555
21.94	5.18555
21.945	5.18555
21.95	5.18555
21.955	5.18555
21.96	5.18555
21.965	5.18555
21.97	5.18555
21.975	5.27344
21.98	5.18555
21.985	5.18555
21.99	5.27344
21.995	5.18555
22	5.27344
22.005	5.18555
22.01	5.18555
22.015	5.18555
22.02	5.18555
22.025	5.18555
22.03	5.18555
22.035	5.18555
22.04	5.18555
22.045	5.18555
22.05	5.18555
22.055	5.18555
22.06	5.27344
22.065	5.27344
22.07	5.27344
22.075	5.27344
22.08	5.27344
22.085	5.27344
22.09	5.27344
22.095	5.27344
22.1	5.27344
22.105	5.27344
22.11	5.27344
22.115	5.27344
22.12	5.27344
22.125	5.27344
22.13	5.27344
22.135	5.27344
22.14	5.27344
22.145	5.36133
22.15	5.36133
22.155	5.36133
22.16	5.36133
22.165	5.44922
22.17	5.44922
22.175	5.44922
22.18	5.44922
22.185	5.44922
22.19	5.44922
22.195	5.36133
22.2	5.44922
22.205	5.36133
22.21	5.44922
22.215	5.44922
22.22	5.44922
22.225	5.44922
22.23	5.44922
22.235	5.44922
22.24	5.44922
22.245	5.44922
22.25	5.44922
22.255	5.53711
22.26	5.53711
22.265	5.44922
22.27	5.53711
22.275	5.44922
22.28	5.44922
22.285	5.44922
22.29	5.44922
22.295	5.44922
22.3	5.44922
22.305	5.44922
22.31	5.44922
22.315	5.44922
22.32	5.44922
22.325	5.44922
22.33	5.53711
22.335	5.53711
22.34	5.53711
22.345	5.53711
22.35	5.53711
22.355	5.53711
22.36	5.53711
22.365	5.53711
22.37	5.53711
22.375	5.53711
22.38	5.53711
22.385	5.53711
22.39	5.53711
22.395	5.53711
22.4	5.53711
22.405	5.53711
22.41	5.53711
22.415	5.53711
22.42	5.53711
22.425	5.53711
22.43	5.625
22.435	5.625
22.44	5.625
22.445	5.625
22.45	5.625
22.455	5.625
22.46	5.625
22.465	5.625
22.47	5.625
22.475	5.625
22.48	5.625
22.485	5.625
22.49	5.625
22.495	5.625
22.5	5.625
22.505	5.625
22.51	5.71289
22.515	5.71289
22.52	5.71289
22.525	5.80078
22.53	5.71289
22.535	5.71289
22.54	5.80078
22.545	5.80078
22.55	5.71289
22.555	5.71289
22.56	5.71289
22.565	5.71289
22.57	5.71289
22.575	5.71289
22.58	5.80078
22.585	5.80078
22.59	5.80078
22.595	5.80078
22.6	5.80078
22.605	5.80078
22.61	5.80078
22.615	5.88867
22.62	5.88867
22.625	5.88867
22.63	5.80078
22.635	5.80078
22.64	5.80078
22.645	5.80078
22.65	5.88867
22.655	5.88867
22.66	5.88867
22.665	5.88867
22.67	5.88867
22.675	5.88867
22.68	5.88867
22.685	5.88867
22.69	5.88867
22.695	5.97656
22.7	5.97656
22.705	5.88867
22.71	5.88867
22.715	5.97656
22.72	5.97656
22.725	5.97656
22.73	5.97656
22.735	5.97656
22.74	5.97656
22.745	5.97656
22.75	5.97656
22.755	5.97656
22.76	5.97656
22.765	5.97656
22.77	5.97656
22.775	5.97656
22.78	5.97656
22.785	6.06445
22.79	5.97656
22.795	6.06445
22.8	5.97656
22.805	6.06445
22.81	6.06445
22.815	5.97656
22.82	5.97656
22.825	5.97656
22.83	5.97656
22.835	5.97656
22.84	5.97656
22.845	6.06445
22.85	6.06445
22.855	6.06445
22.86	6.06445
22.865	6.06445
22.87	6.06445
22.875	6.06445
22.88	6.06445
22.885	6.15234
22.89	6.15234
22.895	6.06445
22.9	6.06445
22.905	6.06445
22.91	6.06445
22.915	6.06445
22.92	6.06445
22.925	6.06445
22.93	6.06445
22.935	6.06445
22.94	6.06445
22.945	6.06445
22.95	6.06445
22.955	6.06445
22.96	6.15234
22.965	6.15234
22.97	6.15234
22.975	6.15234
22.98	6.15234
22.985	6.15234
22.99	6.15234
22.995	6.15234
23	6.15234
23.005	6.15234
23.01	6.15234
23.015	6.15234
23.02	6.15234
23.025	6.06445
23.03	6.06445
23.035	6.15234
23.04	6.06445
23.045	6.15234
23.05	6.15234
23.055	6.06445
23.06	6.15234
23.065	6.15234
23.07	6.15234
23.075	6.15234
23.08	6.15234
23.085	6.06445
23.09	6.06445
23.095	6.06445
23.1	6.06445
23.105	6.06445
23.11	6.06445
23.115	6.06445
23.12	6.06445
23.125	6.06445
23.13	6.06445
23.135	6.06445
23.14	6.06445
23.145	6.06445
23.15	6.06445
23.155	6.06445
23.16	6.06445
23.165	6.06445
23.17	6.06445
23.175	6.06445
23.18	6.06445
23.185	6.06445
23.19	6.06445
23.195	6.06445
23.2	6.06445
23.205	5.97656
23.21	5.97656
23.215	5.97656
23.22	5.97656
23.225	5.97656
23.23	5.97656
23.235	5.97656
23.24	5.97656
23.245	5.97656
23.25	5.97656
23.255	6.06445
23.26	6.06445
23.265	6.06445
23.27	6.06445
23.275	5.97656
23.28	5.97656
23.285	5.97656
23.29	5.97656
23.295	5.97656
23.3	5.97656
23.305	5.97656
23.31	5.97656
23.315	5.97656
23.32	5.97656
23.325	5.97656
23.33	5.97656
23.335	5.97656
23.34	5.97656
23.345	5.97656
23.35	5.97656
23.355	5.97656
23.36	5.97656
23.365	5.97656
23.37	5.97656
23.375	5.97656
23.38	5.97656
23.385	5.88867
23.39	5.88867
23.395	5.88867
23.4	5.88867
23.405	5.88867
23.41	5.88867
23.415	5.88867
23.42	5.88867
23.425	5.88867
23.43	5.88867
23.435	5.88867
23.44	5.88867
23.445	5.88867
23.45	5.88867
23.455	5.88867
23.46	5.88867
23.465	5.88867
23.47	5.88867
23.475	5.88867
23.48	5.88867
23.485	5.80078
23.49	5.80078
23.495	5.80078
23.5	5.80078
23.505	5.80078
23.51	5.80078
23.515	5.80078
23.52	5.80078
23.525	5.80078
23.53	5.80078
23.535	5.80078
23.54	5.80078
23.545	5.80078
23.55	5.80078
23.555	5.80078
23.56	5.80078
23.565	5.80078
23.57	5.80078
23.575	5.80078
23.58	5.80078
23.585	5.80078
23.59	5.80078
23.595	5.80078
23.6	5.80078
23.605	5.80078
23.61	5.80078
23.615	5.80078
23.62	5.80078
23.625	5.80078
23.63	5.80078
23.635	5.80078
23.64	5.80078
23.645	5.80078
23.65	5.88867
23.655	5.80078
23.66	5.80078
23.665	5.80078
23.67	5.80078
23.675	5.80078
23.68	5.80078
23.685	5.80078
23.69	5.80078
23.695	5.80078
23.7	5.80078
23.705	5.88867
23.71	5.88867
23.715	5.88867
23.72	5.88867
23.725	5.88867
23.73	5.88867
23.735	5.88867
23.74	5.88867
23.745	5.88867
23.75	5.88867
23.755	5.88867
23.76	5.88867
23.765	5.88867
23.77	5.88867
23.775	5.88867
23.78	5.88867
23.785	5.88867
23.79	5.88867
23.795	5.88867
23.8	5.88867
23.805	5.88867
23.81	5.88867
23.815	5.88867
23.82	5.88867
23.825	5.88867
23.83	5.88867
23.835	5.88867
23.84	5.88867
23.845	5.88867
23.85	5.88867
23.855	5.88867
23.86	5.88867
23.865	5.88867
23.87	5.88867
23.875	5.88867
23.88	5.88867
23.885	5.88867
23.89	5.88867
23.895	5.88867
23.9	5.88867
23.905	5.88867
23.91	5.88867
23.915	5.88867
23.92	5.88867
23.925	5.88867
23.93	5.88867
23.935	5.88867
23.94	5.88867
23.945	5.88867
23.95	5.88867
23.955	5.88867
23.96	5.88867
23.965	5.88867
23.97	5.88867
23.975	5.88867
23.98	5.88867
23.985	5.88867
23.99	5.88867
23.995	5.88867
24	5.88867
24.005	5.88867
24.01	5.88867
24.015	5.88867
24.02	5.88867
24.025	5.88867
24.03	5.88867
24.035	5.88867
24.04	5.88867
24.045	5.88867
24.05	5.88867
24.055	5.88867
24.06	5.80078
24.065	5.80078
24.07	5.88867
24.075	5.80078
24.08	5.80078
24.085	5.80078
24.09	5.88867
24.095	5.80078
24.1	5.80078
24.105	5.80078
24.11	5.80078
24.115	5.80078
24.12	5.80078
24.125	5.80078
24.13	5.80078
24.135	5.80078
24.14	5.80078
24.145	5.80078
24.15	5.80078
24.155	5.80078
24.16	5.80078
24.165	5.80078
24.17	5.80078
24.175	5.80078
24.18	5.80078
24.185	5.80078
24.19	5.80078
24.195	5.80078
24.2	5.80078
24.205	5.80078
24.21	5.80078
24.215	5.80078
24.22	5.80078
24.225	5.80078
24.23	5.80078
24.235	5.80078
24.24	5.80078
24.245	5.80078
24.25	5.80078
24.255	5.80078
24.26	5.80078
24.265	5.80078
24.27	5.80078
24.275	5.80078
24.28	5.80078
24.285	5.80078
24.29	5.80078
24.295	5.80078
24.3	5.80078
24.305	5.80078
24.31	5.80078
24.315	5.80078
24.32	5.80078
24.325	5.80078
24.33	5.80078
24.335	5.80078
24.34	5.80078
24.345	5.80078
24.35	5.80078
24.355	5.80078
24.36	5.80078
24.365	5.80078
24.37	5.80078
24.375	5.80078
24.38	5.80078
24.385	5.80078
24.39	5.80078
24.395	5.80078
24.4	5.80078
24.405	5.80078
24.41	5.80078
24.415	5.80078
24.42	5.80078
24.425	5.80078
24.43	5.80078
24.435	5.80078
24.44	5.80078
24.445	5.80078
24.45	5.80078
24.455	5.80078
24.46	5.80078
24.465	5.80078
24.47	5.80078
24.475	5.80078
24.48	5.80078
24.485	5.80078
24.49	5.80078
24.495	5.80078
24.5	5.71289
24.505	5.71289
24.51	5.71289
24.515	5.71289
24.52	5.71289
24.525	5.71289
24.53	5.71289
24.535	5.71289
24.54	5.71289
24.545	5.71289
24.55	5.71289
24.555	5.71289
24.56	5.71289
24.565	5.71289
24.57	5.71289
24.575	5.71289
24.58	5.71289
24.585	5.71289
24.59	5.71289
24.595	5.71289
24.6	5.71289
24.605	5.71289
24.61	5.71289
24.615	5.71289
24.62	5.71289
24.625	5.71289
24.63	5.71289
24.635	5.71289
24.64	5.71289
24.645	5.71289
24.65	5.71289
24.655	5.71289
24.66	5.71289
24.665	5.71289
24.67	5.71289
24.675	5.71289
24.68	5.71289
24.685	5.71289
24.69	5.71289
24.695	5.71289
24.7	5.71289
24.705	5.71289
24.71	5.71289
24.715	5.71289
24.72	5.71289
24.725	5.71289
24.73	5.71289
24.735	5.71289
24.74	5.71289
24.745	5.71289
24.75	5.71289
24.755	5.71289
24.76	5.71289
24.765	5.71289
24.77	5.71289
24.775	5.71289
24.78	5.71289
24.785	5.71289
24.79	5.71289
24.795	5.71289
24.8	5.71289
24.805	5.71289
24.81	5.71289
24.815	5.71289
24.82	5.71289
24.825	5.71289
24.83	5.80078
24.835	5.71289
24.84	5.80078
24.845	5.80078
24.85	5.80078
24.855	5.80078
24.86	5.80078
24.865	5.80078
24.87	5.80078
24.875	5.80078
24.88	5.80078
24.885	5.80078
24.89	5.80078
24.895	5.80078
24.9	5.80078
24.905	5.80078
24.91	5.80078
24.915	5.80078
24.92	5.80078
24.925	5.80078
24.93	5.80078
24.935	5.80078
24.94	5.80078
24.945	5.80078
24.95	5.80078
24.955	5.80078
24.96	5.80078
24.965	5.80078
24.97	5.80078
24.975	5.80078
24.98	5.80078
24.985	5.80078
24.99	5.80078
24.995	5.80078
25	5.80078
25.005	5.80078
25.01	5.80078
25.015	5.80078
25.02	5.80078
25.025	5.80078
25.03	5.80078
25.035	5.80078
25.04	5.80078
25.045	5.80078
25.05	5.80078
25.055	5.80078
25.06	5.80078
25.065	5.80078
25.07	5.80078
25.075	5.80078
25.08	5.80078
25.085	5.80078
25.09	5.80078
25.095	5.80078
25.1	5.80078
25.105	5.80078
25.11	5.80078
25.115	5.80078
25.12	5.80078
25.125	5.80078
25.13	5.80078
25.135	5.80078
25.14	5.80078
25.145	5.80078
25.15	5.80078
25.155	5.80078
25.16	5.80078
25.165	5.71289
25.17	5.71289
25.175	5.71289
25.18	5.71289
25.185	5.71289
25.19	5.625
25.195	5.625
25.2	5.625
25.205	5.625
25.21	5.53711
25.215	5.625
25.22	5.53711
25.225	5.53711
25.23	5.44922
25.235	5.44922
25.24	5.36133
25.245	5.44922
25.25	5.36133
25.255	5.36133
25.26	5.27344
25.265	5.27344
25.27	5.27344
25.275	5.27344
25.28	5.18555
25.285	5.09766
25.29	5.09766
25.295	5.09766
25.3	5.09766
25.305	5.00977
25.31	5.00977
25.315	5.00977
25.32	4.92188
25.325	5.00977
25.33	4.92188
25.335	4.92188
25.34	4.92188
25.345	4.83398
25.35	4.83398
25.355	4.83398
25.36	4.74609
25.365	4.74609
25.37	4.83398
25.375	4.83398
25.38	4.83398
25.385	4.83398
25.39	4.83398
25.395	4.83398
25.4	4.83398
25.405	4.74609
25.41	4.74609
25.415	4.74609
25.42	4.74609
25.425	4.74609
25.43	4.74609
25.435	4.74609
25.44	4.74609
25.445	4.74609
25.45	4.74609
25.455	4.83398
25.46	4.74609
25.465	4.83398
25.47	4.83398
25.475	4.74609
25.48	4.74609
25.485	4.74609
25.49	4.6582
25.495	4.6582
25.5	4.6582
25.505	4.74609
25.51	4.6582
25.515	4.6582
25.52	4.6582
25.525	4.6582
25.53	4.57031
25.535	4.57031
25.54	4.57031
25.545	4.48242
25.55	4.48242
25.555	4.39453
25.56	4.39453
25.565	4.39453
25.57	4.48242
25.575	4.39453
25.58	4.39453
25.585	4.39453
25.59	4.30664
25.595	4.30664
25.6	4.13086
25.605	4.13086
25.61	4.04297
25.615	4.04297
25.62	4.04297
25.625	4.04297
25.63	4.04297
25.635	4.04297
25.64	4.04297
25.645	3.86719
25.65	3.86719
25.655	3.86719
25.66	3.69141
25.665	3.69141
25.67	3.69141
25.675	3.69141
25.68	3.69141
25.685	3.60352
25.69	3.60352
25.695	3.60352
25.7	3.60352
25.705	3.51563
25.71	3.60352
25.715	3.51563
25.72	3.42773
25.725	3.33984
25.73	3.33984
25.735	3.33984
25.74	3.33984
25.745	3.33984
25.75	3.33984
25.755	3.33984
25.76	3.42773
25.765	3.33984
25.77	3.33984
25.775	3.33984
25.78	3.33984
25.785	3.33984
25.79	3.33984
25.795	3.33984
25.8	3.25195
25.805	3.25195
25.81	3.33984
25.815	3.33984
25.82	3.33984
25.825	3.33984
25.83	3.33984
25.835	3.42773
25.84	3.51563
25.845	3.51563
25.85	3.51563
25.855	3.51563
25.86	3.51563
25.865	3.51563
25.87	3.60352
25.875	3.69141
25.88	3.69141
25.885	3.7793
25.89	3.86719
25.895	3.86719
25.9	3.95508
25.905	4.04297
25.91	4.13086
25.915	4.13086
25.92	4.21875
25.925	4.21875
25.93	4.30664
25.935	4.30664
25.94	4.48242
25.945	4.57031
25.95	4.57031
25.955	4.83398
25.96	4.83398
25.965	4.92188
25.97	5.00977
25.975	5.00977
25.98	5.09766
25.985	5.18555
25.99	5.18555
25.995	5.36133
26	5.36133
26.005	5.44922
26.01	5.53711
26.015	5.625
26.02	5.625
26.025	5.80078
26.03	5.80078
26.035	5.80078
26.04	5.88867
26.045	5.97656
26.05	5.97656
26.055	6.06445
26.06	6.06445
26.065	6.24023
26.07	6.24023
26.075	6.24023
26.08	6.32812
26.085	6.32812
26.09	6.32812
26.095	6.32812
26.1	6.32812
26.105	6.32812
26.11	6.41602
26.115	6.41602
26.12	6.41602
26.125	6.41602
26.13	6.41602
26.135	6.50391
26.14	6.50391
26.145	6.50391
26.15	6.50391
26.155	6.50391
26.16	6.50391
26.165	6.50391
26.17	6.50391
26.175	6.50391
26.18	6.50391
26.185	6.50391
26.19	6.50391
26.195	6.50391
26.2	6.50391
26.205	6.50391
26.21	6.50391
26.215	6.50391
26.22	6.50391
26.225	6.50391
26.23	6.50391
26.235	6.50391
26.24	6.50391
26.245	6.50391
26.25	6.50391
26.255	6.50391
26.26	6.50391
26.265	6.50391
26.27	6.50391
26.275	6.50391
26.28	6.50391
26.285	6.50391
26.29	6.50391
26.295	6.41602
26.3	6.41602
26.305	6.41602
26.31	6.41602
26.315	6.41602
26.32	6.41602
26.325	6.41602
26.33	6.41602
26.335	6.41602
26.34	6.50391
26.345	6.41602
26.35	6.41602
26.355	6.50391
26.36	6.50391
26.365	6.50391
26.37	6.50391
26.375	6.50391
26.38	6.50391
26.385	6.50391
26.39	6.50391
26.395	6.50391
26.4	6.50391
26.405	6.50391
26.41	6.50391
26.415	6.5918
26.42	6.5918
26.425	6.5918
26.43	6.5918
26.435	6.5918
26.44	6.5918
26.445	6.5918
26.45	6.5918
26.455	6.67969
26.46	6.5918
26.465	6.67969
26.47	6.67969
26.475	6.67969
26.48	6.67969
26.485	6.67969
26.49	6.67969
26.495	6.67969
26.5	6.76758
26.505	6.76758
26.51	6.76758
26.515	6.76758
26.52	6.76758
26.525	6.85547
26.53	6.85547
26.535	6.85547
26.54	6.85547
26.545	6.85547
26.55	6.85547
26.555	6.85547
26.56	6.85547
26.565	6.85547
26.57	6.94336
26.575	6.94336
26.58	6.94336
26.585	6.94336
26.59	6.94336
26.595	6.94336
26.6	6.94336
26.605	7.03125
26.61	7.03125
26.615	7.03125
26.62	7.03125
26.625	7.03125
26.63	7.03125
26.635	7.03125
26.64	7.03125
26.645	7.03125
26.65	7.03125
26.655	7.03125
26.66	7.11914
26.665	7.11914
26.67	7.11914
26.675	7.11914
26.68	7.11914
26.685	7.11914
26.69	7.11914
26.695	7.11914
26.7	7.11914
26.705	7.20703
26.71	7.20703
26.715	7.20703
26.72	7.20703
26.725	7.20703
26.73	7.20703
26.735	7.20703
26.74	7.20703
26.745	7.20703
26.75	7.20703
26.755	7.20703
26.76	7.20703
26.765	7.20703
26.77	7.20703
26.775	7.20703
26.78	7.20703
26.785	7.20703
26.79	7.20703
26.795	7.20703
26.8	7.20703
26.805	7.20703
26.81	7.20703
26.815	7.20703
26.82	7.20703
26.825	7.20703
26.83	7.20703
26.835	7.20703
26.84	7.20703
26.845	7.20703
26.85	7.20703
26.855	7.20703
26.86	7.20703
26.865	7.20703
26.87	7.20703
26.875	7.20703
26.88	7.11914
26.885	7.11914
26.89	7.11914
26.895	7.11914
26.9	7.11914
26.905	7.11914
26.91	7.11914
26.915	7.11914
26.92	7.11914
26.925	7.03125
26.93	7.03125
26.935	7.03125
26.94	7.03125
26.945	7.03125
26.95	7.03125
26.955	7.03125
26.96	7.03125
26.965	6.94336
26.97	6.94336
26.975	6.94336
26.98	6.94336
26.985	6.85547
26.99	6.85547
26.995	6.85547
27	6.85547
27.005	6.85547
27.01	6.85547
27.015	6.76758
27.02	6.76758
27.025	6.76758
27.03	6.76758
27.035	6.76758
27.04	6.67969
27.045	6.67969
27.05	6.67969
27.055	6.67969
27.06	6.67969
27.065	6.67969
27.07	6.5918
27.075	6.5918
27.08	6.5918
27.085	6.5918
27.09	6.50391
27.095	6.50391
27.1	6.50391
27.105	6.50391
27.11	6.50391
27.115	6.50391
27.12	6.50391
27.125	6.50391
27.13	6.41602
27.135	6.41602
27.14	6.41602
27.145	6.41602
27.15	6.32812
27.155	6.32812
27.16	6.32812
27.165	6.32812
27.17	6.32812
27.175	6.32812
27.18	6.32812
27.185	6.24023
27.19	6.24023
27.195	6.24023
27.2	6.24023
27.205	6.24023
27.21	6.15234
27.215	6.15234
27.22	6.15234
27.225	6.15234
27.23	6.15234
27.235	6.15234
27.24	6.15234
27.245	6.06445
27.25	6.15234
27.255	6.06445
27.26	6.06445
27.265	6.06445
27.27	6.06445
27.275	6.06445
27.28	5.97656
27.285	6.06445
27.29	5.97656
27.295	5.97656
27.3	5.97656
27.305	5.97656
27.31	5.97656
27.315	5.97656
27.32	5.97656
27.325	5.97656
27.33	5.97656
27.335	5.88867
27.34	5.88867
27.345	5.97656
27.35	5.88867
27.355	5.88867
27.36	5.88867
27.365	5.88867
27.37	5.88867
27.375	5.88867
27.38	5.88867
27.385	5.88867
27.39	5.88867
27.395	5.88867
27.4	5.88867
27.405	5.88867
27.41	5.88867
27.415	5.88867
27.42	5.80078
27.425	5.80078
27.43	5.80078
27.435	5.80078
27.44	5.80078
27.445	5.80078
27.45	5.80078
27.455	5.80078
27.46	5.80078
27.465	5.80078
27.47	5.80078
27.475	5.80078
27.48	5.80078
27.485	5.71289
27.49	5.80078
27.495	5.71289
27.5	5.71289
27.505	5.71289
27.51	5.71289
27.515	5.71289
27.52	5.71289
27.525	5.71289
27.53	5.71289
27.535	5.71289
27.54	5.625
27.545	5.625
27.55	5.625
27.555	5.625
27.56	5.625
27.565	5.625
27.57	5.625
27.575	5.625
27.58	5.53711
27.585	5.53711
27.59	5.53711
27.595	5.53711
27.6	5.53711
27.605	5.53711
27.61	5.44922
27.615	5.53711
27.62	5.44922
27.625	5.44922
27.63	5.44922
27.635	5.44922
27.64	5.44922
27.645	5.44922
27.65	5.44922
27.655	5.44922
27.66	5.44922
27.665	5.44922
27.67	5.36133
27.675	5.36133
27.68	5.36133
27.685	5.36133
27.69	5.36133
27.695	5.36133
27.7	5.36133
27.705	5.36133
27.71	5.36133
27.715	5.27344
27.72	5.27344
27.725	5.27344
27.73	5.27344
27.735	5.27344
27.74	5.27344
27.745	5.27344
27.75	5.27344
27.755	5.27344
27.76	5.27344
27.765	5.27344
27.77	5.27344
27.775	5.27344
27.78	5.27344
27.785	5.27344
27.79	5.27344
27.795	5.27344
27.8	5.27344
27.805	5.27344
27.81	5.27344
27.815	5.27344
27.82	5.27344
27.825	5.27344
27.83	5.27344
27.835	5.27344
27.84	5.27344
27.845	5.27344
27.85	5.27344
27.855	5.27344
27.86	5.27344
27.865	5.27344
27.87	5.27344
27.875	5.27344
27.88	5.27344
27.885	5.27344
27.89	5.27344
27.895	5.27344
27.9	5.27344
27.905	5.27344
27.91	5.27344
27.915	5.27344
27.92	5.27344
27.925	5.27344
27.93	5.27344
27.935	5.27344
27.94	5.27344
27.945	5.27344
27.95	5.27344
27.955	5.27344
27.96	5.27344
27.965	5.36133
27.97	5.27344
27.975	5.27344
27.98	5.27344
27.985	5.36133
27.99	5.36133
27.995	5.36133
28	5.36133
28.005	5.36133
28.01	5.36133
28.015	5.36133
28.02	5.36133
28.025	5.36133
28.03	5.36133
28.035	5.36133
28.04	5.36133
28.045	5.36133
28.05	5.36133
28.055	5.36133
28.06	5.36133
28.065	5.36133
28.07	5.36133
28.075	5.44922
28.08	5.44922
28.085	5.44922
28.09	5.44922
28.095	5.44922
28.1	5.44922
28.105	5.44922
28.11	5.44922
28.115	5.44922
28.12	5.44922
28.125	5.44922
28.13	5.44922
28.135	5.44922
28.14	5.44922
28.145	5.44922
28.15	5.44922
28.155	5.44922
28.16	5.44922
28.165	5.53711
28.17	5.53711
28.175	5.53711
28.18	5.53711
28.185	5.53711
28.19	5.53711
28.195	5.53711
28.2	5.625
28.205	5.625
28.21	5.625
28.215	5.625
28.22	5.625
28.225	5.625
28.23	5.625
28.235	5.625
28.24	5.625
28.245	5.625
28.25	5.625
28.255	5.71289
28.26	5.71289
28.265	5.71289
28.27	5.71289
28.275	5.71289
28.28	5.71289
28.285	5.71289
28.29	5.71289
28.295	5.80078
28.3	5.80078
28.305	5.80078
28.31	5.80078
28.315	5.80078
28.32	5.80078
28.325	5.80078
28.33	5.80078
28.335	5.80078
28.34	5.80078
28.345	5.80078
28.35	5.80078
28.355	5.80078
28.36	5.80078
28.365	5.80078
28.37	5.80078
28.375	5.88867
28.38	5.80078
28.385	5.88867
28.39	5.88867
28.395	5.88867
28.4	5.88867
28.405	5.88867
28.41	5.88867
28.415	5.88867
28.42	5.88867
28.425	5.88867
28.43	5.88867
28.435	5.88867
28.44	5.88867
28.445	5.88867
28.45	5.88867
28.455	5.88867
28.46	5.88867
28.465	5.88867
28.47	5.88867
28.475	5.88867
28.48	5.88867
28.485	5.97656
28.49	5.88867
28.495	5.97656
28.5	5.97656
28.505	5.97656
28.51	5.97656
28.515	5.97656
28.52	5.97656
28.525	5.97656
28.53	5.97656
28.535	5.97656
28.54	5.97656
28.545	5.97656
28.55	5.97656
28.555	5.97656
28.56	6.06445
28.565	6.06445
28.57	6.06445
28.575	6.06445
28.58	6.06445
28.585	6.06445
28.59	6.06445
28.595	6.06445
28.6	6.06445
28.605	6.06445
28.61	6.06445
28.615	6.06445
28.62	6.15234
28.625	6.15234
28.63	6.15234
28.635	6.15234
28.64	6.15234
28.645	6.15234
28.65	6.15234
28.655	6.24023
28.66	6.15234
28.665	6.24023
28.67	6.24023
28.675	6.24023
28.68	6.24023
28.685	6.24023
28.69	6.24023
28.695	6.24023
28.7	6.24023
28.705	6.24023
28.71	6.32812
28.715	6.32812
28.72	6.32812
28.725	6.32812
28.73	6.32812
28.735	6.32812
28.74	6.32812
28.745	6.32812
28.75	6.32812
28.755	6.32812
28.76	6.41602
28.765	6.41602
28.77	6.41602
28.775	6.41602
28.78	6.41602
28.785	6.41602
28.79	6.41602
28.795	6.41602
28.8	6.41602
28.805	6.41602
28.81	6.41602
28.815	6.41602
28.82	6.41602
28.825	6.41602
28.83	6.50391
28.835	6.50391
28.84	6.50391
28.845	6.50391
28.85	6.50391
28.855	6.50391
28.86	6.50391
28.865	6.50391
28.87	6.50391
28.875	6.50391
28.88	6.50391
28.885	6.50391
28.89	6.50391
28.895	6.50391
28.9	6.50391
28.905	6.50391
28.91	6.50391
28.915	6.50391
28.92	6.50391
28.925	6.50391
28.93	6.50391
28.935	6.50391
28.94	6.50391
28.945	6.50391
28.95	6.50391
28.955	6.50391
28.96	6.50391
28.965	6.50391
28.97	6.50391
28.975	6.50391
28.98	6.50391
28.985	6.50391
28.99	6.50391
28.995	6.50391
29	6.50391
29.005	6.50391
29.01	6.50391
29.015	6.50391
29.02	6.50391
29.025	6.50391
29.03	6.41602
29.035	6.41602
29.04	6.50391
29.045	6.41602
29.05	6.41602
29.055	6.41602
29.06	6.41602
29.065	6.41602
29.07	6.41602
29.075	6.41602
29.08	6.41602
29.085	6.41602
29.09	6.41602
29.095	6.41602
29.1	6.41602
29.105	6.32812
29.11	6.32812
29.115	6.32812
29.12	6.32812
29.125	6.32812
29.13	6.32812
29.135	6.32812
29.14	6.32812
29.145	6.32812
29.15	6.32812
29.155	6.32812
29.16	6.32812
29.165	6.32812
29.17	6.32812
29.175	6.32812
29.18	6.32812
29.185	6.24023
29.19	6.24023
29.195	6.24023
29.2	6.24023
29.205	6.24023
29.21	6.24023
29.215	6.24023
29.22	6.24023
29.225	6.24023
29.23	6.24023
29.235	6.24023
29.24	6.24023
29.245	6.24023
29.25	6.24023
29.255	6.24023
29.26	6.24023
29.265	6.24023
29.27	6.15234
29.275	6.15234
29.28	6.24023
29.285	6.24023
29.29	6.24023
29.295	6.15234
29.3	6.15234
29.305	6.24023
29.31	6.15234
29.315	6.15234
29.32	6.15234
29.325	6.15234
29.33	6.15234
29.335	6.15234
29.34	6.15234
29.345	6.15234
29.35	6.15234
29.355	6.15234
29.36	6.15234
29.365	6.15234
29.37	6.15234
29.375	6.15234
29.38	6.15234
29.385	6.15234
29.39	6.15234
29.395	6.15234
29.4	6.15234
29.405	6.15234
29.41	6.15234
29.415	6.15234
29.42	6.15234
29.425	6.15234
29.43	6.24023
29.435	6.15234
29.44	6.15234
29.445	6.15234
29.45	6.24023
29.455	6.15234
29.46	6.15234
29.465	6.15234
29.47	6.15234
29.475	6.15234
29.48	6.15234
29.485	6.15234
29.49	6.15234
29.495	6.15234
29.5	6.15234
29.505	6.15234
29.51	6.15234
29.515	6.15234
29.52	6.15234
29.525	6.15234
29.53	6.15234
29.535	6.15234
29.54	6.15234
29.545	6.06445
29.55	6.15234
29.555	6.06445
29.56	6.06445
29.565	6.06445
29.57	6.06445
29.575	6.06445
29.58	6.06445
29.585	6.06445
29.59	6.06445
29.595	6.06445
29.6	6.06445
29.605	6.06445
29.61	6.06445
29.615	6.06445
29.62	6.06445
29.625	5.97656
29.63	6.06445
29.635	5.97656
29.64	5.97656
29.645	5.97656
29.65	5.97656
29.655	5.97656
29.66	5.97656
29.665	5.97656
29.67	5.97656
29.675	5.97656
29.68	5.97656
29.685	5.97656
29.69	5.97656
29.695	5.97656
29.7	5.97656
29.705	5.97656
29.71	5.97656
29.715	5.97656
29.72	5.97656
29.725	5.97656
29.73	5.97656
29.735	5.97656
29.74	5.97656
29.745	5.97656
29.75	5.97656
29.755	5.97656
29.76	5.97656
29.765	5.97656
29.77	5.97656
29.775	5.97656
29.78	5.97656
29.785	5.97656
29.79	5.97656
29.795	5.97656
29.8	5.97656
29.805	5.97656
29.81	5.97656
29.815	5.97656
29.82	5.97656
29.825	5.97656
29.83	5.97656
29.835	5.97656
29.84	5.97656
29.845	5.97656
29.85	5.97656
29.855	5.97656
29.86	5.97656
29.865	5.97656
29.87	5.97656
29.875	5.97656
29.88	5.97656
29.885	5.97656
29.89	5.97656
29.895	6.06445
29.9	5.97656
29.905	5.97656
29.91	6.06445
29.915	5.97656
29.92	6.06445
29.925	6.06445
29.93	6.06445
29.935	6.06445
29.94	6.06445
29.945	6.06445
29.95	6.06445
29.955	6.06445
29.96	6.06445
29.965	6.06445
29.97	6.06445
29.975	6.06445
29.98	6.15234
29.985	6.06445
29.99	6.15234
29.995	6.15234
30	6.15234
30.005	6.15234
30.01	6.15234
30.015	6.15234
30.02	6.15234
30.025	6.15234
30.03	6.24023
30.035	6.15234
30.04	6.15234
30.045	6.24023
30.05	6.15234
30.055	6.15234
30.06	6.24023
30.065	6.15234
30.07	6.15234
30.075	6.15234
30.08	6.15234
30.085	6.15234
30.09	6.15234
30.095	6.15234
30.1	6.15234
30.105	6.15234
30.11	6.24023
30.115	6.15234
30.12	6.15234
30.125	6.15234
30.13	6.15234
30.135	6.06445
30.14	6.06445
30.145	6.06445
30.15	6.06445
30.155	5.97656
30.16	5.97656
30.165	5.97656
30.17	5.88867
30.175	5.88867
30.18	5.88867
30.185	5.88867
30.19	5.88867
30.195	5.80078
30.2	5.71289
30.205	5.71289
30.21	5.71289
30.215	5.625
30.22	5.625
30.225	5.625
30.23	5.44922
30.235	5.44922
30.24	5.44922
30.245	5.27344
30.25	5.27344
30.255	5.27344
30.26	5.18555
30.265	5.18555
30.27	5.18555
30.275	5.00977
30.28	5.00977
30.285	4.92188
30.29	4.83398
30.295	4.83398
30.3	4.83398
30.305	4.6582
30.31	4.6582
30.315	4.57031
30.32	4.57031
30.325	4.57031
30.33	4.48242
30.335	4.48242
30.34	4.39453
30.345	4.30664
30.35	4.30664
30.355	4.30664
30.36	4.30664
30.365	4.21875
30.37	4.21875
30.375	4.21875
30.38	4.13086
30.385	4.13086
30.39	4.13086
30.395	4.13086
30.4	4.13086
30.405	4.04297
30.41	4.04297
30.415	4.04297
30.42	4.13086
30.425	4.04297
30.43	4.13086
30.435	4.13086
30.44	4.13086
30.445	4.13086
30.45	4.21875
30.455	4.21875
30.46	4.21875
30.465	4.30664
30.47	4.39453
30.475	4.57031
30.48	4.57031
30.485	4.57031
30.49	4.83398
30.495	4.92188
30.5	4.92188
30.505	5.09766
30.51	5.18555
30.515	5.18555
30.52	5.44922
30.525	5.44922
30.53	5.53711
30.535	5.71289
30.54	5.80078
30.545	5.88867
30.55	6.06445
30.555	6.15234
30.56	6.41602
30.565	6.41602
30.57	6.50391
30.575	6.67969
30.58	6.76758
30.585	6.76758
30.59	7.03125
30.595	7.03125
30.6	7.11914
30.605	7.20703
30.61	7.29492
30.615	7.38281
30.62	7.4707
30.625	7.55859
30.63	7.55859
30.635	7.64648
30.64	7.64648
30.645	7.64648
30.65	7.73437
30.655	7.73437
30.66	7.73437
30.665	7.82227
30.67	7.82227
30.675	7.82227
30.68	7.91016
30.685	7.91016
30.69	7.91016
30.695	7.91016
30.7	7.91016
30.705	7.91016
30.71	7.91016
30.715	7.82227
30.72	7.82227
30.725	7.82227
30.73	7.73437
30.735	7.73437
30.74	7.73437
30.745	7.73437
30.75	7.73437
30.755	7.64648
30.76	7.64648
30.765	7.55859
30.77	7.55859
30.775	7.55859
30.78	7.55859
30.785	7.4707
30.79	7.4707
30.795	7.38281
30.8	7.38281
30.805	7.29492
30.81	7.29492
30.815	7.20703
30.82	7.20703
30.825	7.11914
30.83	7.03125
30.835	7.03125
30.84	6.94336
30.845	6.85547
30.85	6.85547
30.855	6.76758
30.86	6.76758
30.865	6.67969
30.87	6.5918
30.875	6.50391
30.88	6.50391
30.885	6.41602
30.89	6.41602
30.895	6.41602
30.9	6.32812
30.905	6.32812
30.91	6.24023
30.915	6.15234
30.92	6.06445
30.925	6.06445
30.93	6.06445
30.935	5.97656
30.94	5.97656
30.945	5.88867
30.95	5.88867
30.955	5.88867
30.96	5.80078
30.965	5.80078
30.97	5.80078
30.975	5.71289
30.98	5.71289
30.985	5.71289
30.99	5.625
30.995	5.625
31	5.625
31.005	5.625
31.01	5.625
31.015	5.625
31.02	5.625
31.025	5.53711
31.03	5.53711
31.035	5.625
31.04	5.625
31.045	5.625
31.05	5.625
31.055	5.625
31.06	5.625
31.065	5.625
31.07	5.625
31.075	5.625
31.08	5.625
31.085	5.625
31.09	5.625
31.095	5.625
31.1	5.625
31.105	5.625
31.11	5.625
31.115	5.625
31.12	5.71289
31.125	5.71289
31.13	5.71289
31.135	5.71289
31.14	5.71289
31.145	5.80078
31.15	5.80078
31.155	5.80078
31.16	5.80078
31.165	5.80078
31.17	5.80078
31.175	5.80078
31.18	5.80078
31.185	5.80078
31.19	5.80078
31.195	5.88867
31.2	5.88867
31.205	5.88867
31.21	5.88867
31.215	5.88867
31.22	5.88867
31.225	5.97656
31.23	5.97656
31.235	5.97656
31.24	5.97656
31.245	5.97656
31.25	5.97656
31.255	5.97656
31.26	5.97656
31.265	5.97656
31.27	5.97656
31.275	5.97656
31.28	6.06445
31.285	6.06445
31.29	5.97656
31.295	5.97656
31.3	5.97656
31.305	5.97656
31.31	5.97656
31.315	5.97656
31.32	5.97656
31.325	5.97656
31.33	5.97656
31.335	5.97656
31.34	5.97656
31.345	5.97656
31.35	5.97656
31.355	5.97656
31.36	5.97656
31.365	5.97656
31.37	5.88867
31.375	5.88867
31.38	5.88867
31.385	5.88867
31.39	5.80078
31.395	5.80078
31.4	5.80078
31.405	5.80078
31.41	5.80078
31.415	5.80078
31.42	5.80078
31.425	5.80078
31.43	5.80078
31.435	5.71289
31.44	5.71289
31.445	5.71289
31.45	5.625
31.455	5.625
31.46	5.625
31.465	5.625
31.47	5.53711
31.475	5.625
31.48	5.53711
31.485	5.53711
31.49	5.53711
31.495	5.53711
31.5	5.53711
31.505	5.44922
31.51	5.44922
31.515	5.44922
31.52	5.44922
31.525	5.36133
31.53	5.36133
31.535	5.36133
31.54	5.36133
31.545	5.36133
31.55	5.36133
31.555	5.36133
31.56	5.36133
31.565	5.36133
31.57	5.27344
31.575	5.27344
31.58	5.27344
31.585	5.27344
31.59	5.27344
31.595	5.18555
31.6	5.18555
31.605	5.18555
31.61	5.18555
31.615	5.27344
31.62	5.27344
31.625	5.27344
31.63	5.27344
31.635	5.27344
31.64	5.27344
31.645	5.27344
31.65	5.27344
31.655	5.27344
31.66	5.27344
31.665	5.27344
31.67	5.18555
31.675	5.18555
31.68	5.09766
31.685	5.09766
31.69	5.09766
31.695	5.18555
31.7	5.18555
31.705	5.18555
31.71	5.18555
31.715	5.18555
31.72	5.18555
31.725	5.18555
31.73	5.18555
31.735	5.18555
31.74	5.18555
31.745	5.18555
31.75	5.18555
31.755	5.18555
31.76	5.18555
31.765	5.09766
31.77	5.09766
31.775	5.09766
31.78	5.09766
31.785	5.09766
31.79	5.18555
31.795	5.18555
31.8	5.18555
31.805	5.18555
31.81	5.18555
31.815	5.18555
31.82	5.18555
31.825	5.18555
31.83	5.18555
31.835	5.18555
31.84	5.18555
31.845	5.18555
31.85	5.18555
31.855	5.18555
31.86	5.18555
31.865	5.18555
31.87	5.18555
31.875	5.18555
31.88	5.18555
31.885	5.18555
31.89	5.18555
31.895	5.18555
31.9	5.18555
31.905	5.18555
31.91	5.18555
31.915	5.18555
31.92	5.18555
31.925	5.18555
31.93	5.18555
31.935	5.18555
31.94	5.18555
31.945	5.18555
31.95	5.18555
31.955	5.18555
31.96	5.18555
31.965	5.18555
31.97	5.18555
31.975	5.18555
31.98	5.18555
31.985	5.18555
31.99	5.27344
31.995	5.27344
32	5.27344
32.005	5.27344
32.01	5.27344
32.015	5.27344
32.02	5.27344
32.025	5.27344
32.03	5.27344
32.035	5.27344
32.04	5.27344
32.045	5.27344
32.05	5.27344
32.055	5.27344
32.06	5.27344
32.065	5.27344
32.07	5.27344
32.075	5.27344
32.08	5.27344
32.085	5.27344
32.09	5.27344
32.095	5.27344
32.1	5.27344
32.105	5.27344
32.11	5.27344
32.115	5.27344
32.12	5.27344
32.125	5.27344
32.13	5.27344
32.135	5.27344
32.14	5.27344
32.145	5.27344
32.15	5.27344
32.155	5.27344
32.16	5.27344
32.165	5.27344
32.17	5.27344
32.175	5.27344
32.18	5.27344
32.185	5.27344
32.19	5.27344
32.195	5.27344
32.2	5.27344
32.205	5.27344
32.21	5.27344
32.215	5.27344
32.22	5.27344
32.225	5.27344
32.23	5.27344
32.235	5.27344
32.24	5.27344
32.245	5.27344
32.25	5.27344
32.255	5.27344
32.26	5.27344
32.265	5.27344
32.27	5.27344
32.275	5.27344
32.28	5.27344
32.285	5.27344
32.29	5.27344
32.295	5.27344
32.3	5.27344
32.305	5.27344
32.31	5.27344
32.315	5.27344
32.32	5.27344
32.325	5.27344
32.33	5.27344
32.335	5.27344
32.34	5.27344
32.345	5.27344
32.35	5.27344
32.355	5.27344
32.36	5.27344
32.365	5.27344
32.37	5.27344
32.375	5.27344
32.38	5.27344
32.385	5.27344
32.39	5.27344
32.395	5.27344
32.4	5.27344
32.405	5.27344
32.41	5.27344
32.415	5.27344
32.42	5.27344
32.425	5.27344
32.43	5.27344
32.435	5.27344
32.44	5.27344
32.445	5.27344
32.45	5.27344
32.455	5.27344
32.46	5.36133
32.465	5.36133
32.47	5.36133
32.475	5.36133
32.48	5.36133
32.485	5.36133
32.49	5.36133
32.495	5.36133
32.5	5.36133
32.505	5.36133
32.51	5.36133
32.515	5.36133
32.52	5.36133
32.525	5.36133
32.53	5.36133
32.535	5.36133
32.54	5.44922
32.545	5.44922
32.55	5.44922
32.555	5.44922
32.56	5.44922
32.565	5.44922
32.57	5.44922
32.575	5.44922
32.58	5.44922
32.585	5.44922
32.59	5.44922
32.595	5.44922
32.6	5.44922
32.605	5.44922
32.61	5.44922
