time (s) - Measured	Pitch (deg) - Measured
0	0
0.005	0
0.01	0
0.015	0
0.02	0
0.025	0.0878906
0.03	0.0878906
0.035	0.0878906
0.04	0.0878906
0.045	0.0878906
0.05	0.0878906
0.055	0
0.06	0
0.065	0
0.07	0
0.075	0
0.08	0
0.085	0
0.09	0
0.095	0
0.1	0
0.105	0
0.11	0
0.115	0
0.12	0
0.125	0
0.13	0
0.135	-0.0878906
0.14	-0.0878906
0.145	-0.0878906
0.15	-0.0878906
0.155	-0.0878906
0.16	-0.0878906
0.165	-0.0878906
0.17	-0.0878906
0.175	-0.175781
0.18	-0.175781
0.185	-0.175781
0.19	-0.175781
0.195	-0.175781
0.2	-0.175781
0.205	-0.175781
0.21	-0.263672
0.215	-0.263672
0.22	-0.263672
0.225	-0.263672
0.23	-0.263672
0.235	-0.351562
0.24	-0.351562
0.245	-0.439453
0.25	-0.439453
0.255	-0.439453
0.26	-0.527344
0.265	-0.615234
0.27	-0.527344
0.275	-0.615234
0.28	-0.615234
0.285	-0.703125
0.29	-0.791016
0.295	-0.878906
0.3	-0.878906
0.305	-0.966797
0.31	-1.05469
0.315	-1.05469
0.32	-1.23047
0.325	-1.31836
0.33	-1.31836
0.335	-1.49414
0.34	-1.49414
0.345	-1.58203
0.35	-1.66992
0.355	-1.66992
0.36	-1.75781
0.365	-1.8457
0.37	-1.93359
0.375	-2.02148
0.38	-2.28516
0.385	-2.46094
0.39	-2.46094
0.395	-2.72461
0.4	-2.8125
0.405	-2.98828
0.41	-3.07617
0.415	-3.16406
0.42	-3.33984
0.425	-3.42773
0.43	-3.69141
0.435	-3.7793
0.44	-3.7793
0.445	-4.04297
0.45	-4.13086
0.455	-4.30664
0.46	-4.48242
0.465	-4.57031
0.47	-4.57031
0.475	-4.57031
0.48	-4.74609
0.485	-4.92188
0.49	-4.92188
0.495	-5.09766
0.5	-5.18555
0.505	-5.27344
0.51	-5.36133
0.515	-5.625
0.52	-5.71289
0.525	-5.80078
0.53	-5.97656
0.535	-6.06445
0.54	-6.15234
0.545	-6.24023
0.55	-6.32812
0.555	-6.41602
0.56	-6.50391
0.565	-6.5918
0.57	-6.76758
0.575	-6.85547
0.58	-6.94336
0.585	-7.03125
0.59	-7.20703
0.595	-7.29492
0.6	-7.38281
0.605	-7.73437
0.61	-7.82227
0.615	-8.08594
0.62	-8.08594
0.625	-8.34961
0.63	-8.4375
0.635	-8.61328
0.64	-8.70117
0.645	-8.78906
0.65	-8.87695
0.655	-8.96484
0.66	-9.05273
0.665	-9.4043
0.67	-9.49219
0.675	-9.58008
0.68	-9.66797
0.685	-9.75586
0.69	-9.84375
0.695	-10.0195
0.7	-10.1074
0.705	-10.1953
0.71	-10.2832
0.715	-10.3711
0.72	-10.459
0.725	-10.5469
0.73	-10.6348
0.735	-10.8984
0.74	-11.0742
0.745	-11.1621
0.75	-11.25
0.755	-11.3379
0.76	-11.4258
0.765	-11.6016
0.77	-11.7773
0.775	-11.8652
0.78	-11.9531
0.785	-12.041
0.79	-12.1289
0.795	-12.2168
0.8	-12.3047
0.805	-12.4805
0.81	-12.5684
0.815	-12.6562
0.82	-12.9199
0.825	-13.0078
0.83	-13.0957
0.835	-13.2715
0.84	-13.3594
0.845	-13.4473
0.85	-13.7109
0.855	-13.8867
0.86	-13.8867
0.865	-14.0625
0.87	-14.1504
0.875	-14.2383
0.88	-14.502
0.885	-14.5898
0.89	-14.8535
0.895	-14.9414
0.9	-14.9414
0.905	-15.2051
0.91	-15.293
0.915	-15.3809
0.92	-15.4687
0.925	-15.5566
0.93	-15.6445
0.935	-15.7324
0.94	-15.8203
0.945	-15.9082
0.95	-16.084
0.955	-16.1719
0.96	-16.3477
0.965	-16.4355
0.97	-16.5234
0.975	-16.6992
0.98	-16.7871
0.985	-16.7871
0.99	-16.9629
0.995	-17.0508
1	-17.1387
1.005	-17.2266
1.01	-17.3145
1.015	-17.4023
1.02	-17.4902
1.025	-17.5781
1.03	-17.666
1.035	-17.7539
1.04	-17.8418
1.045	-17.9297
1.05	-18.0176
1.055	-18.1055
1.06	-18.2813
1.065	-18.2813
1.07	-18.3691
1.075	-18.457
1.08	-18.457
1.085	-18.5449
1.09	-18.6328
1.095	-18.7207
1.1	-18.8086
1.105	-18.8965
1.11	-18.9844
1.115	-18.9844
1.12	-19.1602
1.125	-19.1602
1.13	-19.1602
1.135	-19.248
1.14	-19.3359
1.145	-19.3359
1.15	-19.4238
1.155	-19.5117
1.16	-19.5117
1.165	-19.5117
1.17	-19.5117
1.175	-19.5996
1.18	-19.5996
1.185	-19.5996
1.19	-19.6875
1.195	-19.6875
1.2	-19.6875
1.205	-19.6875
1.21	-19.6875
1.215	-19.6875
1.22	-19.6875
1.225	-19.6875
1.23	-19.6875
1.235	-19.6875
1.24	-19.6875
1.245	-19.6875
1.25	-19.6875
1.255	-19.5996
1.26	-19.5996
1.265	-19.5996
1.27	-19.5996
1.275	-19.5117
1.28	-19.5117
1.285	-19.4238
1.29	-19.4238
1.295	-19.3359
1.3	-19.3359
1.305	-19.248
1.31	-19.248
1.315	-19.1602
1.32	-19.0723
1.325	-19.0723
1.33	-18.8965
1.335	-18.8965
1.34	-18.8086
1.345	-18.6328
1.35	-18.6328
1.355	-18.3691
1.36	-18.2813
1.365	-18.1934
1.37	-17.8418
1.375	-17.7539
1.38	-17.4023
1.385	-17.3145
1.39	-17.2266
1.395	-16.9629
1.4	-16.875
1.405	-16.7871
1.41	-16.3477
1.415	-16.2598
1.42	-16.084
1.425	-15.8203
1.43	-15.6445
1.435	-15.5566
1.44	-15.293
1.445	-15.1172
1.45	-14.9414
1.455	-14.502
1.46	-14.3262
1.465	-14.2383
1.47	-13.8867
1.475	-13.7109
1.48	-13.5352
1.485	-13.1836
1.49	-13.0078
1.495	-12.9199
1.5	-12.3926
1.505	-12.2168
1.51	-12.041
1.515	-11.5137
1.52	-11.3379
1.525	-10.6348
1.53	-10.459
1.535	-10.2832
1.54	-9.75586
1.545	-9.58008
1.55	-9.4043
1.555	-8.87695
1.56	-8.70117
1.565	-8.26172
1.57	-8.08594
1.575	-7.91016
1.58	-7.4707
1.585	-7.29492
1.59	-7.20703
1.595	-6.76758
1.6	-6.5918
1.605	-6.41602
1.61	-6.06445
1.615	-5.88867
1.62	-5.80078
1.625	-5.44922
1.63	-5.27344
1.635	-5.18555
1.64	-4.83398
1.645	-4.6582
1.65	-4.57031
1.655	-4.39453
1.66	-4.30664
1.665	-3.86719
1.67	-3.7793
1.675	-3.51563
1.68	-3.42773
1.685	-3.25195
1.69	-3.16406
1.695	-3.07617
1.7	-2.8125
1.705	-2.8125
1.71	-2.63672
1.715	-2.54883
1.72	-2.37305
1.725	-2.28516
1.73	-2.10938
1.735	-2.02148
1.74	-1.8457
1.745	-1.75781
1.75	-1.66992
1.755	-1.49414
1.76	-1.40625
1.765	-1.31836
1.77	-1.23047
1.775	-1.14258
1.78	-1.05469
1.785	-0.791016
1.79	-0.703125
1.795	-0.527344
1.8	-0.439453
1.805	-0.351562
1.81	-0.175781
1.815	-0.0878906
1.82	0
1.825	0.175781
1.83	0.263672
1.835	0.351562
1.84	0.615234
1.845	0.703125
1.85	0.966797
1.855	1.14258
1.86	1.23047
1.865	1.49414
1.87	1.58203
1.875	1.66992
1.88	1.8457
1.885	1.93359
1.89	2.02148
1.895	2.28516
1.9	2.37305
1.905	2.54883
1.91	2.63672
1.915	2.8125
1.92	2.98828
1.925	3.07617
1.93	3.16406
1.935	3.33984
1.94	3.51563
1.945	3.60352
1.95	3.7793
1.955	3.86719
1.96	3.95508
1.965	4.21875
1.97	4.30664
1.975	4.48242
1.98	4.57031
1.985	4.6582
1.99	4.83398
1.995	4.92188
2	5.00977
2.005	5.18555
2.01	5.27344
2.015	5.44922
2.02	5.625
2.025	5.71289
2.03	5.80078
2.035	5.88867
2.04	5.97656
2.045	6.06445
2.05	6.15234
2.055	6.24023
2.06	6.32812
2.065	6.50391
2.07	6.5918
2.075	6.85547
2.08	6.94336
2.085	7.03125
2.09	7.20703
2.095	7.29492
2.1	7.38281
2.105	7.4707
2.11	7.55859
2.115	7.73437
2.12	7.82227
2.125	7.99805
2.13	8.08594
2.135	8.08594
2.14	8.26172
2.145	8.34961
2.15	8.4375
2.155	8.61328
2.16	8.61328
2.165	8.70117
2.17	8.78906
2.175	8.78906
2.18	8.87695
2.185	8.96484
2.19	9.05273
2.195	9.14063
2.2	9.22852
2.205	9.31641
2.21	9.49219
2.215	9.58008
2.22	9.58008
2.225	9.75586
2.23	9.75586
2.235	9.75586
2.24	9.84375
2.245	9.93164
2.25	9.93164
2.255	10.0195
2.26	10.1074
2.265	10.1953
2.27	10.1953
2.275	10.2832
2.28	10.3711
2.285	10.459
2.29	10.459
2.295	10.5469
2.3	10.6348
2.305	10.6348
2.31	10.7227
2.315	10.7227
2.32	10.7227
2.325	10.8984
2.33	10.8984
2.335	10.9863
2.34	10.9863
2.345	11.0742
2.35	11.0742
2.355	11.1621
2.36	11.1621
2.365	11.25
2.37	11.25
2.375	11.25
2.38	11.3379
2.385	11.3379
2.39	11.4258
2.395	11.4258
2.4	11.5137
2.405	11.5137
2.41	11.5137
2.415	11.6016
2.42	11.6016
2.425	11.6895
2.43	11.6895
2.435	11.6895
2.44	11.7773
2.445	11.7773
2.45	11.7773
2.455	11.8652
2.46	11.8652
2.465	11.8652
2.47	11.8652
2.475	11.8652
2.48	11.8652
2.485	11.8652
2.49	11.9531
2.495	11.9531
2.5	11.9531
2.505	11.9531
2.51	12.041
2.515	12.041
2.52	12.1289
2.525	12.1289
2.53	12.1289
2.535	12.1289
2.54	12.1289
2.545	12.1289
2.55	12.1289
2.555	12.1289
2.56	12.1289
2.565	12.1289
2.57	12.1289
2.575	12.1289
2.58	12.1289
2.585	12.1289
2.59	12.2168
2.595	12.2168
2.6	12.2168
2.605	12.2168
2.61	12.3047
2.615	12.2168
2.62	12.2168
2.625	12.2168
2.63	12.2168
2.635	12.2168
2.64	12.2168
2.645	12.2168
2.65	12.2168
2.655	12.1289
2.66	12.1289
2.665	12.1289
2.67	12.1289
2.675	12.1289
2.68	12.2168
2.685	12.2168
2.69	12.2168
2.695	12.2168
2.7	12.2168
2.705	12.1289
2.71	12.2168
2.715	12.1289
2.72	12.1289
2.725	12.1289
2.73	12.1289
2.735	12.1289
2.74	12.1289
2.745	12.1289
2.75	12.1289
2.755	12.1289
2.76	12.041
2.765	12.041
2.77	12.041
2.775	12.041
2.78	12.041
2.785	12.041
2.79	12.041
2.795	12.041
2.8	12.041
2.805	12.041
2.81	11.9531
2.815	11.9531
2.82	11.9531
2.825	11.9531
2.83	11.9531
2.835	11.9531
2.84	11.9531
2.845	11.9531
2.85	11.9531
2.855	11.8652
2.86	11.8652
2.865	11.8652
2.87	11.8652
2.875	11.8652
2.88	11.8652
2.885	11.8652
2.89	11.7773
2.895	11.7773
2.9	11.7773
2.905	11.7773
2.91	11.7773
2.915	11.7773
2.92	11.7773
2.925	11.7773
2.93	11.6895
2.935	11.6895
2.94	11.6895
2.945	11.6895
2.95	11.6895
2.955	11.6895
2.96	11.6016
2.965	11.6016
2.97	11.6016
2.975	11.6016
2.98	11.6016
2.985	11.5137
2.99	11.5137
2.995	11.5137
3	11.5137
3.005	11.4258
3.01	11.4258
3.015	11.4258
3.02	11.4258
3.025	11.4258
3.03	11.3379
3.035	11.3379
3.04	11.3379
3.045	11.25
3.05	11.25
3.055	11.25
3.06	11.25
3.065	11.1621
3.07	11.1621
3.075	11.1621
3.08	11.1621
3.085	11.0742
3.09	11.0742
3.095	11.1621
3.1	11.0742
3.105	11.0742
3.11	10.9863
3.115	10.9863
3.12	10.9863
3.125	10.8984
3.13	10.8984
3.135	10.8984
3.14	10.8984
3.145	10.8984
3.15	10.8984
3.155	10.8984
3.16	10.8984
3.165	10.8984
3.17	10.8984
3.175	10.8105
3.18	10.8105
3.185	10.8105
3.19	10.8105
3.195	10.7227
3.2	10.7227
3.205	10.7227
3.21	10.7227
3.215	10.7227
3.22	10.7227
3.225	10.6348
3.23	10.6348
3.235	10.6348
3.24	10.6348
3.245	10.6348
3.25	10.5469
3.255	10.5469
3.26	10.5469
3.265	10.5469
3.27	10.5469
3.275	10.5469
3.28	10.5469
3.285	10.5469
3.29	10.459
3.295	10.459
3.3	10.3711
3.305	10.3711
3.31	10.3711
3.315	10.3711
3.32	10.3711
3.325	10.3711
3.33	10.2832
3.335	10.2832
3.34	10.2832
3.345	10.2832
3.35	10.1953
3.355	10.1953
3.36	10.1953
3.365	10.1953
3.37	10.1953
3.375	10.1953
3.38	10.1953
3.385	10.1074
3.39	10.1074
3.395	10.1074
3.4	10.1074
3.405	10.0195
3.41	10.0195
3.415	10.0195
3.42	10.0195
3.425	10.0195
3.43	10.0195
3.435	9.93164
3.44	9.93164
3.445	9.93164
3.45	9.93164
3.455	9.84375
3.46	9.84375
3.465	9.84375
3.47	9.84375
3.475	9.75586
3.48	9.75586
3.485	9.75586
3.49	9.66797
3.495	9.66797
3.5	9.66797
3.505	9.66797
3.51	9.66797
3.515	9.66797
3.52	9.58008
3.525	9.58008
3.53	9.49219
3.535	9.49219
3.54	9.49219
3.545	9.49219
3.55	9.4043
3.555	9.4043
3.56	9.4043
3.565	9.4043
3.57	9.31641
3.575	9.31641
3.58	9.31641
3.585	9.31641
3.59	9.31641
3.595	9.31641
3.6	9.31641
3.605	9.31641
3.61	9.31641
3.615	9.22852
3.62	9.22852
3.625	9.14063
3.63	9.14063
3.635	9.14063
3.64	9.14063
3.645	9.05273
3.65	9.05273
3.655	9.05273
3.66	9.05273
3.665	8.96484
3.67	8.96484
3.675	8.96484
3.68	8.96484
3.685	8.96484
3.69	8.96484
3.695	8.96484
3.7	8.87695
3.705	8.87695
3.71	8.87695
3.715	8.78906
3.72	8.78906
3.725	8.78906
3.73	8.78906
3.735	8.78906
3.74	8.78906
3.745	8.70117
3.75	8.70117
3.755	8.70117
3.76	8.70117
3.765	8.70117
3.77	8.70117
3.775	8.70117
3.78	8.61328
3.785	8.61328
3.79	8.61328
3.795	8.61328
3.8	8.61328
3.805	8.61328
3.81	8.61328
3.815	8.52539
3.82	8.52539
3.825	8.52539
3.83	8.52539
3.835	8.4375
3.84	8.52539
3.845	8.4375
3.85	8.4375
3.855	8.4375
3.86	8.4375
3.865	8.4375
3.87	8.4375
3.875	8.4375
3.88	8.4375
3.885	8.34961
3.89	8.4375
3.895	8.34961
3.9	8.26172
3.905	8.26172
3.91	8.34961
3.915	8.26172
3.92	8.26172
3.925	8.26172
3.93	8.26172
3.935	8.17383
3.94	8.17383
3.945	8.17383
3.95	8.17383
3.955	8.17383
3.96	8.17383
3.965	8.08594
3.97	8.08594
3.975	8.08594
3.98	8.08594
3.985	8.08594
3.99	8.08594
3.995	7.99805
4	7.99805
4.005	7.99805
4.01	7.99805
4.015	7.91016
4.02	7.91016
4.025	7.91016
4.03	7.82227
4.035	7.82227
4.04	7.82227
4.045	7.82227
4.05	7.82227
4.055	7.73437
4.06	7.73437
4.065	7.73437
4.07	7.73437
4.075	7.73437
4.08	7.73437
4.085	7.73437
4.09	7.73437
4.095	7.64648
4.1	7.64648
4.105	7.64648
4.11	7.55859
4.115	7.55859
4.12	7.55859
4.125	7.55859
4.13	7.55859
4.135	7.4707
4.14	7.4707
4.145	7.4707
4.15	7.4707
4.155	7.4707
4.16	7.4707
4.165	7.38281
4.17	7.38281
4.175	7.38281
4.18	7.38281
4.185	7.38281
4.19	7.38281
4.195	7.38281
4.2	7.29492
4.205	7.29492
4.21	7.29492
4.215	7.29492
4.22	7.20703
4.225	7.20703
4.23	7.20703
4.235	7.20703
4.24	7.20703
4.245	7.11914
4.25	7.11914
4.255	7.11914
4.26	7.11914
4.265	7.11914
4.27	7.03125
4.275	7.03125
4.28	7.03125
4.285	7.03125
4.29	7.03125
4.295	7.03125
4.3	6.94336
4.305	6.94336
4.31	6.94336
4.315	6.94336
4.32	6.85547
4.325	6.85547
4.33	6.85547
4.335	6.85547
4.34	6.85547
4.345	6.85547
4.35	6.85547
4.355	6.85547
4.36	6.76758
4.365	6.76758
4.37	6.76758
4.375	6.76758
4.38	6.76758
4.385	6.76758
4.39	6.67969
4.395	6.67969
4.4	6.67969
4.405	6.67969
4.41	6.67969
4.415	6.67969
4.42	6.5918
4.425	6.5918
4.43	6.5918
4.435	6.5918
4.44	6.5918
4.445	6.5918
4.45	6.5918
4.455	6.5918
4.46	6.5918
4.465	6.5918
4.47	6.5918
4.475	6.50391
4.48	6.50391
4.485	6.50391
4.49	6.50391
4.495	6.50391
4.5	6.41602
4.505	6.41602
4.51	6.41602
4.515	6.41602
4.52	6.41602
4.525	6.41602
4.53	6.41602
4.535	6.41602
4.54	6.41602
4.545	6.41602
4.55	6.41602
4.555	6.41602
4.56	6.41602
4.565	6.41602
4.57	6.32812
4.575	6.32812
4.58	6.32812
4.585	6.32812
4.59	6.32812
4.595	6.32812
4.6	6.32812
4.605	6.32812
4.61	6.32812
4.615	6.32812
4.62	6.24023
4.625	6.24023
4.63	6.24023
4.635	6.24023
4.64	6.24023
4.645	6.24023
4.65	6.24023
4.655	6.24023
4.66	6.24023
4.665	6.24023
4.67	6.24023
4.675	6.24023
4.68	6.24023
4.685	6.15234
4.69	6.15234
4.695	6.15234
4.7	6.15234
4.705	6.15234
4.71	6.15234
4.715	6.15234
4.72	6.15234
4.725	6.15234
4.73	6.15234
4.735	6.15234
4.74	6.15234
4.745	6.06445
4.75	6.15234
4.755	6.06445
4.76	6.06445
4.765	6.06445
4.77	6.06445
4.775	6.06445
4.78	6.06445
4.785	6.06445
4.79	6.06445
4.795	5.97656
4.8	5.97656
4.805	5.97656
4.81	5.97656
4.815	5.97656
4.82	5.97656
4.825	5.97656
4.83	5.97656
4.835	5.97656
4.84	5.97656
4.845	5.97656
4.85	5.97656
4.855	5.97656
4.86	5.97656
4.865	5.97656
4.87	5.88867
4.875	5.88867
4.88	5.88867
4.885	5.88867
4.89	5.88867
4.895	5.88867
4.9	5.88867
4.905	5.88867
4.91	5.88867
4.915	5.88867
4.92	5.80078
4.925	5.80078
4.93	5.80078
4.935	5.80078
4.94	5.80078
4.945	5.80078
4.95	5.80078
4.955	5.80078
4.96	5.80078
4.965	5.80078
4.97	5.80078
4.975	5.80078
4.98	5.80078
4.985	5.80078
4.99	5.71289
4.995	5.71289
5	5.71289
5.005	5.71289
5.01	5.71289
5.015	5.71289
5.02	5.625
5.025	5.625
5.03	5.625
5.035	5.625
5.04	5.625
5.045	5.625
5.05	5.625
5.055	5.625
5.06	5.625
5.065	5.625
5.07	5.625
5.075	5.625
5.08	5.625
5.085	5.625
5.09	5.625
5.095	5.625
5.1	5.625
5.105	5.625
5.11	5.625
5.115	5.625
5.12	5.625
5.125	5.625
5.13	5.625
5.135	5.625
5.14	5.625
5.145	5.53711
5.15	5.53711
5.155	5.53711
5.16	5.53711
5.165	5.53711
5.17	5.53711
5.175	5.53711
5.18	5.53711
5.185	5.44922
5.19	5.44922
5.195	5.44922
5.2	5.44922
5.205	5.44922
5.21	5.44922
5.215	5.44922
5.22	5.44922
5.225	5.44922
5.23	5.36133
5.235	5.36133
5.24	5.36133
5.245	5.27344
5.25	5.27344
5.255	5.18555
5.26	5.18555
5.265	5.27344
5.27	5.18555
5.275	5.09766
5.28	5.18555
5.285	5.09766
5.29	5.09766
5.295	5.00977
5.3	5.00977
5.305	5.00977
5.31	4.92188
5.315	4.92188
5.32	4.92188
5.325	4.83398
5.33	4.83398
5.335	4.83398
5.34	4.83398
5.345	4.83398
5.35	4.74609
5.355	4.83398
5.36	4.74609
5.365	4.74609
5.37	4.74609
5.375	4.74609
5.38	4.74609
5.385	4.74609
5.39	4.74609
5.395	4.74609
5.4	4.74609
5.405	4.74609
5.41	4.6582
5.415	4.6582
5.42	4.6582
5.425	4.6582
5.43	4.6582
5.435	4.6582
5.44	4.74609
5.445	4.74609
5.45	4.74609
5.455	4.74609
5.46	4.74609
5.465	4.74609
5.47	4.83398
5.475	4.83398
5.48	4.74609
5.485	4.74609
5.49	4.74609
5.495	4.83398
5.5	4.83398
5.505	4.83398
5.51	4.92188
5.515	4.92188
5.52	4.92188
5.525	4.92188
5.53	4.92188
5.535	4.83398
5.54	4.83398
5.545	4.83398
5.55	4.74609
5.555	4.74609
5.56	4.74609
5.565	4.74609
5.57	4.74609
5.575	4.74609
5.58	4.74609
5.585	4.74609
5.59	4.74609
5.595	4.74609
5.6	4.74609
5.605	4.74609
5.61	4.74609
5.615	4.6582
5.62	4.6582
5.625	4.6582
5.63	4.57031
5.635	4.57031
5.64	4.57031
5.645	4.57031
5.65	4.48242
5.655	4.48242
5.66	4.48242
5.665	4.48242
5.67	4.39453
5.675	4.39453
5.68	4.39453
5.685	4.30664
5.69	4.30664
5.695	4.30664
5.7	4.21875
5.705	4.13086
5.71	4.13086
5.715	4.13086
5.72	4.04297
5.725	4.04297
5.73	3.95508
5.735	3.86719
5.74	3.86719
5.745	3.86719
5.75	3.7793
5.755	3.7793
5.76	3.7793
5.765	3.69141
5.77	3.69141
5.775	3.60352
5.78	3.60352
5.785	3.60352
5.79	3.60352
5.795	3.51563
5.8	3.51563
5.805	3.51563
5.81	3.42773
5.815	3.42773
5.82	3.33984
5.825	3.33984
5.83	3.33984
5.835	3.25195
5.84	3.25195
5.845	3.25195
5.85	3.25195
5.855	3.16406
5.86	3.16406
5.865	3.16406
5.87	3.16406
5.875	3.07617
5.88	3.07617
5.885	3.07617
5.89	3.07617
5.895	2.98828
5.9	3.07617
5.905	2.98828
5.91	2.98828
5.915	3.07617
5.92	3.07617
5.925	2.98828
5.93	3.07617
5.935	3.16406
5.94	3.16406
5.945	3.07617
5.95	3.07617
5.955	3.16406
5.96	3.16406
5.965	3.16406
5.97	3.16406
5.975	3.25195
5.98	3.25195
5.985	3.33984
5.99	3.33984
5.995	3.42773
6	3.51563
6.005	3.51563
6.01	3.51563
6.015	3.51563
6.02	3.60352
6.025	3.69141
6.03	3.69141
6.035	3.7793
6.04	3.7793
6.045	3.86719
6.05	3.86719
6.055	4.04297
6.06	4.04297
6.065	4.13086
6.07	4.13086
6.075	4.21875
6.08	4.30664
6.085	4.39453
6.09	4.48242
6.095	4.6582
6.1	4.6582
6.105	4.83398
6.11	4.83398
6.115	4.92188
6.12	5.09766
6.125	5.09766
6.13	5.18555
6.135	5.36133
6.14	5.36133
6.145	5.53711
6.15	5.53711
6.155	5.625
6.16	5.71289
6.165	5.80078
6.17	5.80078
6.175	5.88867
6.18	5.97656
6.185	5.97656
6.19	6.15234
6.195	6.15234
6.2	6.24023
6.205	6.32812
6.21	6.32812
6.215	6.41602
6.22	6.50391
6.225	6.5918
6.23	6.67969
6.235	6.67969
6.24	6.76758
6.245	6.85547
6.25	6.85547
6.255	6.94336
6.26	6.94336
6.265	7.03125
6.27	7.03125
6.275	7.11914
6.28	7.11914
6.285	7.11914
6.29	7.20703
6.295	7.20703
6.3	7.20703
6.305	7.20703
6.31	7.29492
6.315	7.29492
6.32	7.29492
6.325	7.29492
6.33	7.29492
6.335	7.38281
6.34	7.38281
6.345	7.38281
6.35	7.38281
6.355	7.38281
6.36	7.4707
6.365	7.4707
6.37	7.4707
6.375	7.4707
6.38	7.4707
6.385	7.4707
6.39	7.4707
6.395	7.4707
6.4	7.4707
6.405	7.4707
6.41	7.4707
6.415	7.4707
6.42	7.4707
6.425	7.4707
6.43	7.4707
6.435	7.4707
6.44	7.4707
6.445	7.4707
6.45	7.4707
6.455	7.4707
6.46	7.4707
6.465	7.4707
6.47	7.4707
6.475	7.4707
6.48	7.4707
6.485	7.4707
6.49	7.4707
6.495	7.4707
6.5	7.4707
6.505	7.4707
6.51	7.4707
6.515	7.4707
6.52	7.4707
6.525	7.38281
6.53	7.38281
6.535	7.38281
6.54	7.38281
6.545	7.38281
6.55	7.38281
6.555	7.38281
6.56	7.38281
6.565	7.38281
6.57	7.38281
6.575	7.38281
6.58	7.38281
6.585	7.38281
6.59	7.38281
6.595	7.38281
6.6	7.38281
6.605	7.38281
6.61	7.38281
6.615	7.38281
6.62	7.38281
6.625	7.38281
6.63	7.38281
6.635	7.38281
6.64	7.38281
6.645	7.38281
6.65	7.38281
6.655	7.38281
6.66	7.38281
6.665	7.38281
6.67	7.38281
6.675	7.38281
6.68	7.38281
6.685	7.38281
6.69	7.38281
6.695	7.38281
6.7	7.38281
6.705	7.38281
6.71	7.38281
6.715	7.38281
6.72	7.38281
6.725	7.38281
6.73	7.38281
6.735	7.38281
6.74	7.38281
6.745	7.38281
6.75	7.38281
6.755	7.38281
6.76	7.38281
6.765	7.38281
6.77	7.38281
6.775	7.38281
6.78	7.38281
6.785	7.38281
6.79	7.38281
6.795	7.38281
6.8	7.38281
6.805	7.38281
6.81	7.38281
6.815	7.4707
6.82	7.4707
6.825	7.4707
6.83	7.4707
6.835	7.4707
6.84	7.4707
6.845	7.4707
6.85	7.4707
6.855	7.4707
6.86	7.4707
6.865	7.4707
6.87	7.4707
6.875	7.4707
6.88	7.4707
6.885	7.4707
6.89	7.4707
6.895	7.4707
6.9	7.4707
6.905	7.55859
6.91	7.55859
6.915	7.55859
6.92	7.55859
6.925	7.55859
6.93	7.55859
6.935	7.55859
6.94	7.55859
6.945	7.55859
6.95	7.55859
6.955	7.55859
6.96	7.55859
6.965	7.55859
6.97	7.55859
6.975	7.55859
6.98	7.55859
6.985	7.55859
6.99	7.55859
6.995	7.55859
7	7.55859
7.005	7.55859
7.01	7.55859
7.015	7.4707
7.02	7.4707
7.025	7.4707
7.03	7.4707
7.035	7.4707
7.04	7.4707
7.045	7.4707
7.05	7.4707
7.055	7.4707
7.06	7.4707
7.065	7.4707
7.07	7.4707
7.075	7.4707
7.08	7.4707
7.085	7.38281
7.09	7.38281
7.095	7.38281
7.1	7.38281
7.105	7.38281
7.11	7.38281
7.115	7.38281
7.12	7.38281
7.125	7.38281
7.13	7.38281
7.135	7.29492
7.14	7.29492
7.145	7.29492
7.15	7.29492
7.155	7.29492
7.16	7.29492
7.165	7.29492
7.17	7.20703
7.175	7.20703
7.18	7.20703
7.185	7.20703
7.19	7.20703
7.195	7.20703
7.2	7.20703
7.205	7.20703
7.21	7.11914
7.215	7.11914
7.22	7.11914
7.225	7.11914
7.23	7.11914
7.235	7.11914
7.24	7.11914
7.245	7.03125
7.25	7.03125
7.255	7.03125
7.26	7.03125
7.265	7.03125
7.27	7.03125
7.275	7.03125
7.28	7.03125
7.285	7.03125
7.29	6.94336
7.295	6.94336
7.3	6.94336
7.305	6.94336
7.31	6.94336
7.315	6.94336
7.32	6.94336
7.325	6.85547
7.33	6.85547
7.335	6.85547
7.34	6.85547
7.345	6.85547
7.35	6.85547
7.355	6.85547
7.36	6.85547
7.365	6.85547
7.37	6.85547
7.375	6.85547
7.38	6.76758
7.385	6.76758
7.39	6.76758
7.395	6.76758
7.4	6.76758
7.405	6.76758
7.41	6.76758
7.415	6.76758
7.42	6.76758
7.425	6.76758
7.43	6.76758
7.435	6.67969
7.44	6.67969
7.445	6.67969
7.45	6.67969
7.455	6.67969
7.46	6.67969
7.465	6.67969
7.47	6.67969
7.475	6.67969
7.48	6.67969
7.485	6.67969
7.49	6.67969
7.495	6.5918
7.5	6.67969
7.505	6.5918
7.51	6.67969
7.515	6.5918
7.52	6.5918
7.525	6.5918
7.53	6.5918
7.535	6.5918
7.54	6.5918
7.545	6.5918
7.55	6.5918
7.555	6.5918
7.56	6.5918
7.565	6.5918
7.57	6.5918
7.575	6.50391
7.58	6.5918
7.585	6.50391
7.59	6.50391
7.595	6.5918
7.6	6.50391
7.605	6.50391
7.61	6.50391
7.615	6.50391
7.62	6.50391
7.625	6.50391
7.63	6.50391
7.635	6.50391
7.64	6.50391
7.645	6.50391
7.65	6.50391
7.655	6.50391
7.66	6.50391
7.665	6.50391
7.67	6.50391
7.675	6.50391
7.68	6.50391
7.685	6.50391
7.69	6.50391
7.695	6.50391
7.7	6.50391
7.705	6.50391
7.71	6.50391
7.715	6.50391
7.72	6.50391
7.725	6.50391
7.73	6.50391
7.735	6.50391
7.74	6.50391
7.745	6.50391
7.75	6.50391
7.755	6.50391
7.76	6.50391
7.765	6.50391
7.77	6.50391
7.775	6.50391
7.78	6.41602
7.785	6.41602
7.79	6.41602
7.795	6.41602
7.8	6.41602
7.805	6.41602
7.81	6.41602
7.815	6.41602
7.82	6.41602
7.825	6.41602
7.83	6.50391
7.835	6.41602
7.84	6.41602
7.845	6.41602
7.85	6.41602
7.855	6.41602
7.86	6.41602
7.865	6.41602
7.87	6.41602
7.875	6.41602
7.88	6.41602
7.885	6.41602
7.89	6.41602
7.895	6.41602
7.9	6.41602
7.905	6.41602
7.91	6.41602
7.915	6.41602
7.92	6.41602
7.925	6.41602
7.93	6.41602
7.935	6.41602
7.94	6.41602
7.945	6.41602
7.95	6.41602
7.955	6.41602
7.96	6.41602
7.965	6.41602
7.97	6.41602
7.975	6.41602
7.98	6.41602
7.985	6.41602
7.99	6.41602
7.995	6.41602
8	6.41602
8.005	6.41602
8.01	6.41602
8.015	6.41602
8.02	6.41602
8.025	6.32812
8.03	6.32812
8.035	6.32812
8.04	6.32812
8.045	6.32812
8.05	6.32812
8.055	6.32812
8.06	6.32812
8.065	6.32812
8.07	6.32812
8.075	6.32812
8.08	6.32812
8.085	6.32812
8.09	6.32812
8.095	6.32812
8.1	6.32812
8.105	6.32812
8.11	6.32812
8.115	6.32812
8.12	6.32812
8.125	6.32812
8.13	6.32812
8.135	6.32812
8.14	6.32812
8.145	6.32812
8.15	6.32812
8.155	6.32812
8.16	6.32812
8.165	6.32812
8.17	6.32812
8.175	6.32812
8.18	6.32812
8.185	6.32812
8.19	6.32812
8.195	6.32812
8.2	6.32812
8.205	6.24023
8.21	6.24023
8.215	6.24023
8.22	6.24023
8.225	6.24023
8.23	6.24023
8.235	6.24023
8.24	6.24023
8.245	6.24023
8.25	6.24023
8.255	6.24023
8.26	6.24023
8.265	6.24023
8.27	6.24023
8.275	6.24023
8.28	6.24023
8.285	6.24023
8.29	6.24023
8.295	6.15234
8.3	6.15234
8.305	6.15234
8.31	6.15234
8.315	6.15234
8.32	6.15234
8.325	6.15234
8.33	6.15234
8.335	6.15234
8.34	6.15234
8.345	6.15234
8.35	6.15234
8.355	6.15234
8.36	6.15234
8.365	6.15234
8.37	6.15234
8.375	6.15234
8.38	6.15234
8.385	6.15234
8.39	6.15234
8.395	6.15234
8.4	6.15234
8.405	6.15234
8.41	6.15234
8.415	6.15234
8.42	6.15234
8.425	6.15234
8.43	6.15234
8.435	6.15234
8.44	6.15234
8.445	6.15234
8.45	6.15234
8.455	6.15234
8.46	6.15234
8.465	6.15234
8.47	6.15234
8.475	6.15234
8.48	6.15234
8.485	6.15234
8.49	6.15234
8.495	6.15234
8.5	6.15234
8.505	6.15234
8.51	6.15234
8.515	6.15234
8.52	6.15234
8.525	6.15234
8.53	6.15234
8.535	6.15234
8.54	6.06445
8.545	6.06445
8.55	6.06445
8.555	6.06445
8.56	6.06445
8.565	6.06445
8.57	6.06445
8.575	6.06445
8.58	6.06445
8.585	6.06445
8.59	6.06445
8.595	6.06445
8.6	6.06445
8.605	6.06445
8.61	6.06445
8.615	6.06445
8.62	6.06445
8.625	6.06445
8.63	6.06445
8.635	6.06445
8.64	6.06445
8.645	6.06445
8.65	6.06445
8.655	6.06445
8.66	6.06445
8.665	6.06445
8.67	6.06445
8.675	6.06445
8.68	6.06445
8.685	6.06445
8.69	6.06445
8.695	6.06445
8.7	6.06445
8.705	6.06445
8.71	6.06445
8.715	6.06445
8.72	6.06445
8.725	6.06445
8.73	6.06445
8.735	6.06445
8.74	6.06445
8.745	6.06445
8.75	6.06445
8.755	6.06445
8.76	6.06445
8.765	6.06445
8.77	6.06445
8.775	5.97656
8.78	6.06445
8.785	5.97656
8.79	5.97656
8.795	6.06445
8.8	5.97656
8.805	6.06445
8.81	6.06445
8.815	6.06445
8.82	6.06445
8.825	6.06445
8.83	6.06445
8.835	6.06445
8.84	6.06445
8.845	6.06445
8.85	6.06445
8.855	6.06445
8.86	6.06445
8.865	6.06445
8.87	6.06445
8.875	6.06445
8.88	6.06445
8.885	6.06445
8.89	6.06445
8.895	6.06445
8.9	6.06445
8.905	6.06445
8.91	6.06445
8.915	6.06445
8.92	6.06445
8.925	6.06445
8.93	6.06445
8.935	6.06445
8.94	6.06445
8.945	6.06445
8.95	6.06445
8.955	6.06445
8.96	6.06445
8.965	6.06445
8.97	6.06445
8.975	6.06445
8.98	6.06445
8.985	6.06445
8.99	6.06445
8.995	6.06445
9	6.06445
9.005	6.06445
9.01	6.06445
9.015	6.06445
9.02	6.06445
9.025	6.06445
9.03	6.06445
9.035	6.06445
9.04	6.06445
9.045	6.06445
9.05	6.06445
9.055	6.06445
9.06	6.06445
9.065	6.06445
9.07	6.06445
9.075	6.06445
9.08	6.06445
9.085	6.06445
9.09	6.06445
9.095	6.06445
9.1	6.06445
9.105	6.06445
9.11	6.06445
9.115	6.06445
9.12	6.06445
9.125	6.15234
9.13	6.15234
9.135	6.15234
9.14	6.15234
9.145	6.15234
9.15	6.15234
9.155	6.15234
9.16	6.15234
9.165	6.15234
9.17	6.15234
9.175	6.15234
9.18	6.15234
9.185	6.15234
9.19	6.15234
9.195	6.15234
9.2	6.15234
9.205	6.15234
9.21	6.15234
9.215	6.15234
9.22	6.15234
9.225	6.24023
9.23	6.15234
9.235	6.24023
9.24	6.24023
9.245	6.24023
9.25	6.24023
9.255	6.24023
9.26	6.24023
9.265	6.24023
9.27	6.24023
9.275	6.24023
9.28	6.24023
9.285	6.24023
9.29	6.24023
9.295	6.24023
9.3	6.24023
9.305	6.24023
9.31	6.24023
9.315	6.24023
9.32	6.24023
9.325	6.24023
9.33	6.24023
9.335	6.24023
9.34	6.24023
9.345	6.24023
9.35	6.32812
9.355	6.24023
9.36	6.32812
9.365	6.24023
9.37	6.32812
9.375	6.32812
9.38	6.32812
9.385	6.32812
9.39	6.32812
9.395	6.32812
9.4	6.32812
9.405	6.32812
9.41	6.32812
9.415	6.32812
9.42	6.32812
9.425	6.32812
9.43	6.32812
9.435	6.32812
9.44	6.32812
9.445	6.32812
9.45	6.32812
9.455	6.32812
9.46	6.32812
9.465	6.32812
9.47	6.32812
9.475	6.32812
9.48	6.32812
9.485	6.32812
9.49	6.32812
9.495	6.32812
9.5	6.32812
9.505	6.32812
9.51	6.32812
9.515	6.32812
9.52	6.32812
9.525	6.32812
9.53	6.32812
9.535	6.32812
9.54	6.32812
9.545	6.32812
9.55	6.32812
9.555	6.32812
9.56	6.32812
9.565	6.32812
9.57	6.32812
9.575	6.32812
9.58	6.32812
9.585	6.41602
9.59	6.41602
9.595	6.41602
9.6	6.41602
9.605	6.41602
9.61	6.41602
9.615	6.41602
9.62	6.41602
9.625	6.41602
9.63	6.41602
9.635	6.41602
9.64	6.41602
9.645	6.41602
9.65	6.41602
9.655	6.41602
9.66	6.41602
9.665	6.41602
9.67	6.41602
9.675	6.41602
9.68	6.41602
9.685	6.41602
9.69	6.41602
9.695	6.41602
9.7	6.41602
9.705	6.41602
9.71	6.41602
9.715	6.41602
9.72	6.41602
9.725	6.41602
9.73	6.41602
9.735	6.41602
9.74	6.41602
9.745	6.41602
9.75	6.41602
9.755	6.41602
9.76	6.41602
9.765	6.41602
9.77	6.41602
9.775	6.41602
9.78	6.41602
9.785	6.41602
9.79	6.41602
9.795	6.41602
9.8	6.41602
9.805	6.41602
9.81	6.41602
9.815	6.41602
9.82	6.41602
9.825	6.41602
9.83	6.41602
9.835	6.41602
9.84	6.41602
9.845	6.41602
9.85	6.41602
9.855	6.41602
9.86	6.41602
9.865	6.41602
9.87	6.32812
9.875	6.41602
9.88	6.32812
9.885	6.32812
9.89	6.32812
9.895	6.32812
9.9	6.32812
9.905	6.32812
9.91	6.32812
9.915	6.32812
9.92	6.32812
9.925	6.32812
9.93	6.32812
9.935	6.32812
9.94	6.32812
9.945	6.32812
9.95	6.32812
9.955	6.32812
9.96	6.32812
9.965	6.32812
9.97	6.32812
9.975	6.32812
9.98	6.32812
9.985	6.32812
9.99	6.32812
9.995	6.32812
10	6.32812
10.005	6.32812
10.01	6.32812
10.015	6.41602
10.02	6.50391
10.025	6.41602
10.03	6.41602
10.035	6.41602
10.04	6.50391
10.045	6.41602
10.05	6.41602
10.055	6.41602
10.06	6.41602
10.065	6.41602
10.07	6.41602
10.075	6.41602
10.08	6.50391
10.085	6.50391
10.09	6.50391
10.095	6.50391
10.1	6.50391
10.105	6.50391
10.11	6.50391
10.115	6.50391
10.12	6.50391
10.125	6.50391
10.13	6.50391
10.135	6.50391
10.14	6.50391
10.145	6.50391
10.15	6.50391
10.155	6.50391
10.16	6.5918
10.165	6.5918
10.17	6.5918
10.175	6.5918
10.18	6.5918
10.185	6.5918
10.19	6.5918
10.195	6.5918
10.2	6.67969
10.205	6.67969
10.21	6.67969
10.215	6.76758
10.22	6.76758
10.225	6.76758
10.23	6.85547
10.235	6.85547
10.24	6.94336
10.245	6.94336
10.25	7.11914
10.255	7.11914
10.26	7.38281
10.265	7.38281
10.27	7.38281
10.275	7.55859
10.28	7.64648
10.285	7.73437
10.29	7.91016
10.295	7.91016
10.3	7.99805
10.305	8.17383
10.31	8.26172
10.315	8.34961
10.32	8.70117
10.325	8.78906
10.33	8.87695
10.335	9.22852
10.34	9.4043
10.345	9.49219
10.35	9.75586
10.355	9.93164
10.36	10.1074
10.365	10.7227
10.37	10.8984
10.375	11.6016
10.38	11.7773
10.385	12.4805
10.39	12.6562
10.395	13.4473
10.4	13.7109
10.405	14.3262
10.41	14.5898
10.415	14.7656
10.42	15.293
10.425	15.4687
10.43	15.7324
10.435	16.1719
10.44	16.4355
10.445	16.6113
10.45	17.3145
10.455	17.5781
10.46	17.7539
10.465	18.457
10.47	18.6328
10.475	19.5117
10.48	19.6875
10.485	19.8633
10.49	20.2148
10.495	20.3906
10.5	20.5664
10.505	21.0937
10.51	21.2695
10.515	21.4453
10.52	21.709
10.525	21.8848
10.53	21.9727
10.535	22.4121
10.54	22.4121
10.545	22.7637
10.55	22.9395
10.555	22.9395
10.56	23.1152
10.565	23.1152
10.57	23.2031
10.575	23.2031
10.58	23.2031
10.585	23.291
10.59	23.2031
10.595	23.1152
10.6	23.1152
10.605	22.8516
10.61	22.8516
10.615	22.6758
10.62	22.5
10.625	22.3242
10.63	22.2363
10.635	21.8848
10.64	21.7969
10.645	21.6211
10.65	21.1816
10.655	21.0937
10.66	20.918
10.665	20.3906
10.67	20.2148
10.675	20.0391
10.68	19.5117
10.685	19.3359
10.69	19.1602
10.695	18.5449
10.7	18.2813
10.705	18.1055
10.71	17.5781
10.715	17.4023
10.72	17.1387
10.725	16.5234
10.73	16.3477
10.735	16.1719
10.74	15.6445
10.745	15.4687
10.75	15.293
10.755	14.7656
10.76	14.5898
10.765	14.502
10.77	13.9746
10.775	13.7988
10.78	13.0957
10.785	13.0078
10.79	12.832
10.795	12.4805
10.8	12.3926
10.805	12.3047
10.81	11.8652
10.815	11.7773
10.82	11.6895
10.825	11.3379
10.83	11.1621
10.835	11.0742
10.84	10.6348
10.845	10.459
10.85	10.1953
10.855	10.1074
10.86	10.0195
10.865	9.75586
10.87	9.66797
10.875	9.66797
10.88	9.49219
10.885	9.4043
10.89	9.31641
10.895	9.14063
10.9	9.05273
10.905	8.96484
10.91	8.70117
10.915	8.61328
10.92	8.52539
10.925	8.26172
10.93	8.26172
10.935	7.91016
10.94	7.91016
10.945	7.91016
10.95	7.55859
10.955	7.4707
10.96	7.20703
10.965	7.20703
10.97	7.11914
10.975	6.94336
10.98	6.85547
10.985	6.85547
10.99	6.5918
10.995	6.50391
11	6.50391
11.005	6.24023
11.01	6.15234
11.015	5.80078
11.02	5.71289
11.025	5.625
11.03	5.36133
11.035	5.27344
11.04	5.18555
11.045	5.00977
11.05	4.92188
11.055	4.83398
11.06	4.57031
11.065	4.48242
11.07	4.39453
11.075	4.04297
11.08	3.95508
11.085	3.7793
11.09	3.51563
11.095	3.42773
11.1	3.33984
11.105	3.16406
11.11	2.98828
11.115	2.90039
11.12	2.63672
11.125	2.63672
11.13	2.19727
11.135	2.10938
11.14	2.02148
11.145	1.75781
11.15	1.66992
11.155	1.58203
11.16	1.40625
11.165	1.31836
11.17	1.23047
11.175	0.966797
11.18	0.878906
11.185	0.878906
11.19	0.527344
11.195	0.439453
11.2	0.175781
11.205	0.0878906
11.21	0
11.215	-0.175781
11.22	-0.263672
11.225	-0.263672
11.23	-0.439453
11.235	-0.527344
11.24	-0.527344
11.245	-0.615234
11.25	-0.703125
11.255	-0.703125
11.26	-1.05469
11.265	-1.14258
11.27	-1.31836
11.275	-1.31836
11.28	-1.40625
11.285	-1.49414
11.29	-1.58203
11.295	-1.58203
11.3	-1.66992
11.305	-1.75781
11.31	-1.75781
11.315	-1.93359
11.32	-1.93359
11.325	-2.02148
11.33	-2.10938
11.335	-2.10938
11.34	-2.19727
11.345	-2.28516
11.35	-2.28516
11.355	-2.37305
11.36	-2.37305
11.365	-2.37305
11.37	-2.46094
11.375	-2.46094
11.38	-2.54883
11.385	-2.54883
11.39	-2.54883
11.395	-2.54883
11.4	-2.63672
11.405	-2.72461
11.41	-2.72461
11.415	-2.8125
11.42	-2.8125
11.425	-2.8125
11.43	-2.8125
11.435	-2.8125
11.44	-2.8125
11.445	-2.8125
11.45	-2.8125
11.455	-2.8125
11.46	-2.8125
11.465	-2.90039
11.47	-2.90039
11.475	-2.90039
11.48	-2.90039
11.485	-2.98828
11.49	-2.98828
11.495	-2.98828
11.5	-2.98828
11.505	-2.98828
11.51	-2.98828
11.515	-2.90039
11.52	-2.90039
11.525	-2.90039
11.53	-2.90039
11.535	-2.98828
11.54	-2.98828
11.545	-2.98828
11.55	-2.98828
11.555	-2.98828
11.56	-2.98828
11.565	-2.98828
11.57	-2.98828
11.575	-2.98828
11.58	-2.98828
11.585	-2.90039
11.59	-2.90039
11.595	-2.90039
11.6	-2.90039
11.605	-2.90039
11.61	-2.90039
11.615	-2.90039
11.62	-2.90039
11.625	-2.90039
11.63	-2.90039
11.635	-2.90039
11.64	-2.90039
11.645	-2.90039
11.65	-2.8125
11.655	-2.8125
11.66	-2.8125
11.665	-2.8125
11.67	-2.8125
11.675	-2.8125
11.68	-2.8125
11.685	-2.8125
11.69	-2.8125
11.695	-2.72461
11.7	-2.72461
11.705	-2.72461
11.71	-2.63672
11.715	-2.63672
11.72	-2.63672
11.725	-2.54883
11.73	-2.54883
11.735	-2.54883
11.74	-2.54883
11.745	-2.54883
11.75	-2.54883
11.755	-2.54883
11.76	-2.54883
11.765	-2.54883
11.77	-2.54883
11.775	-2.54883
11.78	-2.54883
11.785	-2.46094
11.79	-2.46094
11.795	-2.46094
11.8	-2.46094
11.805	-2.37305
11.81	-2.37305
11.815	-2.37305
11.82	-2.37305
11.825	-2.37305
11.83	-2.37305
11.835	-2.37305
11.84	-2.37305
11.845	-2.37305
11.85	-2.37305
11.855	-2.37305
11.86	-2.28516
11.865	-2.28516
11.87	-2.28516
11.875	-2.28516
11.88	-2.19727
11.885	-2.19727
11.89	-2.19727
11.895	-2.19727
11.9	-2.19727
11.905	-2.19727
11.91	-2.19727
11.915	-2.19727
11.92	-2.19727
11.925	-2.19727
11.93	-2.19727
11.935	-2.10938
11.94	-2.10938
11.945	-2.10938
11.95	-2.02148
11.955	-2.02148
11.96	-2.02148
11.965	-1.93359
11.97	-1.93359
11.975	-2.02148
11.98	-2.02148
11.985	-2.02148
11.99	-2.02148
11.995	-2.02148
12	-1.93359
12.005	-1.93359
12.01	-1.93359
12.015	-1.93359
12.02	-1.8457
12.025	-1.8457
12.03	-1.8457
12.035	-1.75781
12.04	-1.75781
12.045	-1.66992
12.05	-1.66992
12.055	-1.66992
12.06	-1.66992
12.065	-1.66992
12.07	-1.66992
12.075	-1.66992
12.08	-1.58203
12.085	-1.58203
12.09	-1.58203
12.095	-1.58203
12.1	-1.49414
12.105	-1.49414
12.11	-1.49414
12.115	-1.40625
12.12	-1.40625
12.125	-1.31836
12.13	-1.31836
12.135	-1.31836
12.14	-1.31836
12.145	-1.31836
12.15	-1.31836
12.155	-1.31836
12.16	-1.23047
12.165	-1.23047
12.17	-1.23047
12.175	-1.23047
12.18	-1.23047
12.185	-1.14258
12.19	-1.14258
12.195	-1.14258
12.2	-1.05469
12.205	-1.05469
12.21	-0.966797
12.215	-0.966797
12.22	-0.966797
12.225	-0.878906
12.23	-0.878906
12.235	-0.878906
12.24	-0.878906
12.245	-0.791016
12.25	-0.791016
12.255	-0.791016
12.26	-0.791016
12.265	-0.703125
12.27	-0.703125
12.275	-0.703125
12.28	-0.703125
12.285	-0.615234
12.29	-0.615234
12.295	-0.527344
12.3	-0.527344
12.305	-0.527344
12.31	-0.439453
12.315	-0.351562
12.32	-0.351562
12.325	-0.263672
12.33	-0.263672
12.335	-0.263672
12.34	-0.175781
12.345	-0.175781
12.35	-0.175781
12.355	-0.0878906
12.36	-0.0878906
12.365	-0.0878906
12.37	-0.0878906
12.375	0
12.38	0
12.385	0
12.39	0.0878906
12.395	0.0878906
12.4	0.175781
12.405	0.175781
12.41	0.263672
12.415	0.351562
12.42	0.351562
12.425	0.439453
12.43	0.439453
12.435	0.527344
12.44	0.527344
12.445	0.615234
12.45	0.615234
12.455	0.615234
12.46	0.615234
12.465	0.703125
12.47	0.703125
12.475	0.703125
12.48	0.791016
12.485	0.791016
12.49	0.878906
12.495	0.878906
12.5	0.966797
12.505	0.966797
12.51	1.05469
12.515	1.05469
12.52	1.05469
12.525	1.14258
12.53	1.23047
12.535	1.23047
12.54	1.31836
12.545	1.31836
12.55	1.31836
12.555	1.31836
12.56	1.40625
12.565	1.40625
12.57	1.40625
12.575	1.40625
12.58	1.49414
12.585	1.49414
12.59	1.58203
12.595	1.58203
12.6	1.58203
12.605	1.66992
12.61	1.66992
12.615	1.75781
12.62	1.75781
12.625	1.8457
12.63	1.8457
12.635	1.8457
12.64	1.93359
12.645	1.93359
12.65	1.93359
12.655	1.93359
12.66	2.02148
12.665	2.02148
12.67	2.02148
12.675	2.02148
12.68	2.10938
12.685	2.10938
12.69	2.10938
12.695	2.19727
12.7	2.19727
12.705	2.19727
12.71	2.28516
12.715	2.28516
12.72	2.28516
12.725	2.28516
12.73	2.37305
12.735	2.37305
12.74	2.37305
12.745	2.37305
12.75	2.46094
12.755	2.46094
12.76	2.46094
12.765	2.46094
12.77	2.46094
12.775	2.54883
12.78	2.54883
12.785	2.54883
12.79	2.54883
12.795	2.63672
12.8	2.63672
12.805	2.63672
12.81	2.63672
12.815	2.63672
12.82	2.63672
12.825	2.72461
12.83	2.72461
12.835	2.72461
12.84	2.72461
12.845	2.72461
12.85	2.72461
12.855	2.8125
12.86	2.8125
12.865	2.8125
12.87	2.8125
12.875	2.8125
12.88	2.8125
12.885	2.8125
12.89	2.8125
12.895	2.8125
12.9	2.8125
12.905	2.90039
12.91	2.90039
12.915	2.90039
12.92	2.90039
12.925	2.90039
12.93	2.90039
12.935	2.90039
12.94	2.90039
12.945	2.90039
12.95	2.90039
12.955	2.90039
12.96	2.90039
12.965	2.90039
12.97	2.90039
12.975	2.90039
12.98	2.90039
12.985	2.90039
12.99	2.90039
12.995	2.8125
13	2.8125
13.005	2.8125
13.01	2.8125
13.015	2.8125
13.02	2.8125
13.025	2.8125
13.03	2.8125
13.035	2.8125
13.04	2.8125
13.045	2.8125
13.05	2.8125
13.055	2.8125
13.06	2.8125
13.065	2.8125
13.07	2.8125
13.075	2.8125
13.08	2.8125
13.085	2.8125
13.09	2.72461
13.095	2.72461
13.1	2.72461
13.105	2.72461
13.11	2.72461
13.115	2.72461
13.12	2.72461
13.125	2.72461
13.13	2.72461
13.135	2.72461
13.14	2.72461
13.145	2.72461
13.15	2.72461
13.155	2.72461
13.16	2.72461
13.165	2.72461
13.17	2.72461
13.175	2.72461
13.18	2.72461
13.185	2.72461
13.19	2.72461
13.195	2.72461
13.2	2.72461
13.205	2.72461
13.21	2.72461
13.215	2.72461
13.22	2.72461
13.225	2.72461
13.23	2.72461
13.235	2.72461
13.24	2.72461
13.245	2.72461
13.25	2.72461
13.255	2.72461
13.26	2.72461
13.265	2.72461
13.27	2.72461
13.275	2.72461
13.28	2.72461
13.285	2.72461
13.29	2.72461
13.295	2.72461
13.3	2.72461
13.305	2.72461
13.31	2.72461
13.315	2.72461
13.32	2.8125
13.325	2.8125
13.33	2.8125
13.335	2.8125
13.34	2.8125
13.345	2.8125
13.35	2.8125
13.355	2.8125
13.36	2.8125
13.365	2.8125
13.37	2.90039
13.375	2.90039
13.38	2.90039
13.385	2.90039
13.39	2.90039
13.395	2.90039
13.4	2.90039
13.405	2.98828
13.41	2.98828
13.415	2.98828
13.42	2.98828
13.425	2.98828
13.43	2.98828
13.435	2.98828
13.44	2.98828
13.445	2.98828
13.45	2.98828
13.455	3.07617
13.46	3.07617
13.465	3.07617
13.47	3.07617
13.475	3.07617
13.48	3.16406
13.485	3.16406
13.49	3.16406
13.495	3.16406
13.5	3.25195
13.505	3.25195
13.51	3.25195
13.515	3.25195
13.52	3.25195
13.525	3.25195
13.53	3.25195
13.535	3.33984
13.54	3.33984
13.545	3.33984
13.55	3.33984
13.555	3.33984
13.56	3.33984
13.565	3.33984
13.57	3.42773
13.575	3.42773
13.58	3.42773
13.585	3.51563
13.59	3.51563
13.595	3.51563
13.6	3.51563
13.605	3.51563
13.61	3.51563
13.615	3.51563
13.62	3.51563
13.625	3.51563
13.63	3.51563
13.635	3.60352
13.64	3.60352
13.645	3.60352
13.65	3.60352
13.655	3.60352
13.66	3.60352
13.665	3.60352
13.67	3.69141
13.675	3.69141
13.68	3.69141
13.685	3.69141
13.69	3.69141
13.695	3.69141
13.7	3.69141
13.705	3.69141
13.71	3.69141
13.715	3.69141
13.72	3.69141
13.725	3.7793
13.73	3.7793
13.735	3.7793
13.74	3.7793
13.745	3.7793
13.75	3.7793
13.755	3.7793
13.76	3.86719
13.765	3.86719
13.77	3.86719
13.775	3.86719
13.78	3.86719
13.785	3.86719
13.79	3.86719
13.795	3.86719
13.8	3.86719
13.805	3.86719
13.81	3.95508
13.815	3.95508
13.82	3.95508
13.825	3.95508
13.83	3.95508
13.835	3.95508
13.84	3.95508
13.845	3.95508
13.85	4.04297
13.855	4.04297
13.86	4.04297
13.865	4.04297
13.87	4.04297
13.875	4.04297
13.88	4.04297
13.885	4.04297
13.89	4.04297
13.895	4.04297
13.9	4.04297
13.905	4.04297
13.91	4.04297
13.915	4.04297
13.92	4.13086
13.925	4.13086
13.93	4.13086
13.935	4.13086
13.94	4.13086
13.945	4.13086
13.95	4.13086
13.955	4.21875
13.96	4.21875
13.965	4.21875
13.97	4.21875
13.975	4.21875
13.98	4.21875
13.985	4.21875
13.99	4.21875
13.995	4.21875
14	4.21875
14.005	4.30664
14.01	4.30664
14.015	4.30664
14.02	4.30664
14.025	4.30664
14.03	4.30664
14.035	4.30664
14.04	4.30664
14.045	4.39453
14.05	4.39453
14.055	4.39453
14.06	4.39453
14.065	4.39453
14.07	4.39453
14.075	4.39453
14.08	4.48242
14.085	4.48242
14.09	4.48242
14.095	4.48242
14.1	4.48242
14.105	4.48242
14.11	4.48242
14.115	4.57031
14.12	4.57031
14.125	4.57031
14.13	4.57031
14.135	4.57031
14.14	4.6582
14.145	4.6582
14.15	4.6582
14.155	4.6582
14.16	4.6582
14.165	4.74609
14.17	4.74609
14.175	4.74609
14.18	4.74609
14.185	4.74609
14.19	4.74609
14.195	4.74609
14.2	4.74609
14.205	4.74609
14.21	4.74609
14.215	4.83398
14.22	4.83398
14.225	4.83398
14.23	4.83398
14.235	4.83398
14.24	4.92188
14.245	4.92188
14.25	4.92188
14.255	4.92188
14.26	4.92188
14.265	4.92188
14.27	4.92188
14.275	4.92188
14.28	4.92188
14.285	5.00977
14.29	5.00977
14.295	5.00977
14.3	5.00977
14.305	5.00977
14.31	5.00977
14.315	5.00977
14.32	5.00977
14.325	5.09766
14.33	5.09766
14.335	5.09766
14.34	5.09766
14.345	5.09766
14.35	5.09766
14.355	5.09766
14.36	5.09766
14.365	5.09766
14.37	5.09766
14.375	5.09766
14.38	5.18555
14.385	5.18555
14.39	5.18555
14.395	5.18555
14.4	5.18555
14.405	5.18555
14.41	5.27344
14.415	5.27344
14.42	5.27344
14.425	5.27344
14.43	5.27344
14.435	5.27344
14.44	5.27344
14.445	5.27344
14.45	5.27344
14.455	5.27344
14.46	5.27344
14.465	5.27344
14.47	5.27344
14.475	5.27344
14.48	5.27344
14.485	5.36133
14.49	5.36133
14.495	5.36133
14.5	5.36133
14.505	5.36133
14.51	5.36133
14.515	5.36133
14.52	5.36133
14.525	5.36133
14.53	5.36133
14.535	5.36133
14.54	5.36133
14.545	5.36133
14.55	5.36133
14.555	5.36133
14.56	5.36133
14.565	5.36133
14.57	5.44922
14.575	5.44922
14.58	5.44922
14.585	5.44922
14.59	5.44922
14.595	5.44922
14.6	5.44922
14.605	5.44922
14.61	5.44922
14.615	5.44922
14.62	5.44922
14.625	5.44922
14.63	5.44922
14.635	5.44922
14.64	5.44922
14.645	5.44922
14.65	5.44922
14.655	5.44922
14.66	5.44922
14.665	5.44922
14.67	5.44922
14.675	5.44922
14.68	5.44922
14.685	5.53711
14.69	5.53711
14.695	5.53711
14.7	5.53711
14.705	5.53711
14.71	5.53711
14.715	5.53711
14.72	5.53711
14.725	5.53711
14.73	5.53711
14.735	5.53711
14.74	5.53711
14.745	5.53711
14.75	5.53711
14.755	5.53711
14.76	5.53711
14.765	5.625
14.77	5.625
14.775	5.625
14.78	5.625
14.785	5.625
14.79	5.625
14.795	5.625
14.8	5.625
14.805	5.625
14.81	5.625
14.815	5.625
14.82	5.625
14.825	5.625
14.83	5.625
14.835	5.625
14.84	5.625
14.845	5.625
14.85	5.625
14.855	5.625
14.86	5.625
14.865	5.625
14.87	5.625
14.875	5.625
14.88	5.71289
14.885	5.71289
14.89	5.71289
14.895	5.71289
14.9	5.71289
14.905	5.71289
14.91	5.71289
14.915	5.71289
14.92	5.71289
14.925	5.71289
14.93	5.71289
14.935	5.71289
14.94	5.71289
14.945	5.71289
14.95	5.71289
14.955	5.71289
14.96	5.71289
14.965	5.71289
14.97	5.71289
14.975	5.71289
14.98	5.71289
14.985	5.71289
14.99	5.71289
14.995	5.71289
15	5.80078
15.005	5.71289
15.01	5.71289
15.015	5.71289
15.02	5.71289
15.025	5.71289
15.03	5.71289
15.035	5.71289
15.04	5.71289
15.045	5.71289
15.05	5.80078
15.055	5.80078
15.06	5.80078
15.065	5.80078
15.07	5.80078
15.075	5.80078
15.08	5.80078
15.085	5.80078
15.09	5.80078
15.095	5.80078
15.1	5.80078
15.105	5.80078
15.11	5.80078
15.115	5.80078
15.12	5.80078
15.125	5.80078
15.13	5.80078
15.135	5.80078
15.14	5.80078
15.145	5.80078
15.15	5.80078
15.155	5.88867
15.16	5.88867
15.165	5.88867
15.17	5.80078
15.175	5.88867
15.18	5.88867
15.185	5.80078
15.19	5.80078
15.195	5.88867
15.2	5.80078
15.205	5.88867
15.21	5.80078
15.215	5.88867
15.22	5.88867
15.225	5.71289
15.23	5.88867
15.235	5.71289
15.24	5.80078
15.245	5.80078
15.25	5.71289
15.255	5.80078
15.26	5.71289
15.265	5.71289
15.27	5.71289
15.275	5.71289
15.28	5.71289
15.285	5.71289
15.29	5.625
15.295	5.625
15.3	5.53711
15.305	5.53711
15.31	5.625
15.315	5.625
15.32	5.53711
15.325	5.625
15.33	5.53711
15.335	5.53711
15.34	5.53711
15.345	5.53711
15.35	5.53711
15.355	5.53711
15.36	5.44922
15.365	5.44922
15.37	5.44922
15.375	5.44922
15.38	5.44922
15.385	5.44922
15.39	5.44922
15.395	5.44922
15.4	5.44922
15.405	5.44922
15.41	5.44922
15.415	5.53711
15.42	5.44922
15.425	5.44922
15.43	5.44922
15.435	5.44922
15.44	5.36133
15.445	5.44922
15.45	5.44922
15.455	5.44922
15.46	5.36133
15.465	5.44922
15.47	5.36133
15.475	5.36133
15.48	5.36133
15.485	5.27344
15.49	5.27344
15.495	5.18555
15.5	5.27344
15.505	5.27344
15.51	5.18555
15.515	5.18555
15.52	5.18555
15.525	5.09766
15.53	5.09766
15.535	5.09766
15.54	5.00977
15.545	4.92188
15.55	5.00977
15.555	4.92188
15.56	4.83398
15.565	4.83398
15.57	4.74609
15.575	4.74609
15.58	4.74609
15.585	4.6582
15.59	4.6582
15.595	4.57031
15.6	4.57031
15.605	4.57031
15.61	4.39453
15.615	4.39453
15.62	4.39453
15.625	4.21875
15.63	4.21875
15.635	4.21875
15.64	4.13086
15.645	4.13086
15.65	3.95508
15.655	3.95508
15.66	3.95508
15.665	3.86719
15.67	3.7793
15.675	3.69141
15.68	3.60352
15.685	3.51563
15.69	3.51563
15.695	3.51563
15.7	3.42773
15.705	3.33984
15.71	3.25195
15.715	3.25195
15.72	3.25195
15.725	3.07617
15.73	3.07617
15.735	2.98828
15.74	2.98828
15.745	2.98828
15.75	2.98828
15.755	2.8125
15.76	2.8125
15.765	2.8125
15.77	2.72461
15.775	2.72461
15.78	2.72461
15.785	2.72461
15.79	2.63672
15.795	2.63672
15.8	2.63672
15.805	2.63672
15.81	2.63672
15.815	2.63672
15.82	2.63672
15.825	2.63672
15.83	2.63672
15.835	2.63672
15.84	2.63672
15.845	2.63672
15.85	2.63672
15.855	2.63672
15.86	2.63672
15.865	2.72461
15.87	2.72461
15.875	2.72461
15.88	2.72461
15.885	2.72461
15.89	2.8125
15.895	2.8125
15.9	2.90039
15.905	2.90039
15.91	2.90039
15.915	2.90039
15.92	2.98828
15.925	3.07617
15.93	3.07617
15.935	3.16406
15.94	3.25195
15.945	3.25195
15.95	3.33984
15.955	3.33984
15.96	3.42773
15.965	3.60352
15.97	3.69141
15.975	3.86719
15.98	3.86719
15.985	3.95508
15.99	4.04297
15.995	4.21875
16	4.21875
16.005	4.30664
16.01	4.39453
16.015	4.39453
16.02	4.48242
16.025	4.48242
16.03	4.57031
16.035	4.6582
16.04	4.74609
16.045	4.83398
16.05	4.92188
16.055	4.92188
16.06	5.00977
16.065	5.09766
16.07	5.18555
16.075	5.27344
16.08	5.36133
16.085	5.36133
16.09	5.53711
16.095	5.53711
16.1	5.625
16.105	5.71289
16.11	5.80078
16.115	5.80078
16.12	5.80078
16.125	5.88867
16.13	5.88867
16.135	5.97656
16.14	5.97656
16.145	6.06445
16.15	6.06445
16.155	6.15234
16.16	6.15234
16.165	6.24023
16.17	6.32812
16.175	6.32812
16.18	6.32812
16.185	6.41602
16.19	6.41602
16.195	6.41602
16.2	6.50391
16.205	6.50391
16.21	6.50391
16.215	6.50391
16.22	6.5918
16.225	6.5918
16.23	6.5918
16.235	6.5918
16.24	6.5918
16.245	6.5918
16.25	6.5918
16.255	6.67969
16.26	6.67969
16.265	6.67969
16.27	6.67969
16.275	6.67969
16.28	6.67969
16.285	6.67969
16.29	6.67969
16.295	6.67969
16.3	6.67969
16.305	6.67969
16.31	6.67969
16.315	6.5918
16.32	6.5918
16.325	6.5918
16.33	6.5918
16.335	6.5918
16.34	6.5918
16.345	6.5918
16.35	6.5918
16.355	6.5918
16.36	6.5918
16.365	6.5918
16.37	6.5918
16.375	6.5918
16.38	6.5918
16.385	6.5918
16.39	6.50391
16.395	6.5918
16.4	6.50391
16.405	6.50391
16.41	6.50391
16.415	6.50391
16.42	6.50391
16.425	6.50391
16.43	6.50391
16.435	6.50391
16.44	6.50391
16.445	6.50391
16.45	6.50391
16.455	6.50391
16.46	6.50391
16.465	6.50391
16.47	6.50391
16.475	6.50391
16.48	6.50391
16.485	6.50391
16.49	6.50391
16.495	6.50391
16.5	6.41602
16.505	6.41602
16.51	6.41602
16.515	6.41602
16.52	6.41602
16.525	6.50391
16.53	6.41602
16.535	6.41602
16.54	6.41602
16.545	6.41602
16.55	6.41602
16.555	6.41602
16.56	6.41602
16.565	6.41602
16.57	6.41602
16.575	6.41602
16.58	6.50391
16.585	6.50391
16.59	6.50391
16.595	6.50391
16.6	6.50391
16.605	6.50391
16.61	6.50391
16.615	6.50391
16.62	6.50391
16.625	6.50391
16.63	6.50391
16.635	6.50391
16.64	6.50391
16.645	6.50391
16.65	6.50391
16.655	6.50391
16.66	6.50391
16.665	6.5918
16.67	6.5918
16.675	6.5918
16.68	6.5918
16.685	6.5918
16.69	6.5918
16.695	6.5918
16.7	6.5918
16.705	6.67969
16.71	6.67969
16.715	6.67969
16.72	6.67969
16.725	6.67969
16.73	6.67969
16.735	6.67969
16.74	6.67969
16.745	6.67969
16.75	6.67969
16.755	6.67969
16.76	6.67969
16.765	6.67969
16.77	6.67969
16.775	6.67969
16.78	6.76758
16.785	6.76758
16.79	6.76758
16.795	6.76758
16.8	6.76758
16.805	6.76758
16.81	6.76758
16.815	6.76758
16.82	6.76758
16.825	6.76758
16.83	6.76758
16.835	6.76758
16.84	6.76758
16.845	6.76758
16.85	6.76758
16.855	6.76758
16.86	6.76758
16.865	6.76758
16.87	6.76758
16.875	6.76758
16.88	6.76758
16.885	6.76758
16.89	6.76758
16.895	6.76758
16.9	6.76758
16.905	6.76758
16.91	6.76758
16.915	6.76758
16.92	6.76758
16.925	6.76758
16.93	6.76758
16.935	6.76758
16.94	6.76758
16.945	6.76758
16.95	6.76758
16.955	6.76758
16.96	6.76758
16.965	6.76758
16.97	6.76758
16.975	6.76758
16.98	6.76758
16.985	6.76758
16.99	6.76758
16.995	6.76758
17	6.67969
17.005	6.67969
17.01	6.67969
17.015	6.67969
17.02	6.67969
17.025	6.67969
17.03	6.67969
17.035	6.67969
17.04	6.67969
17.045	6.67969
17.05	6.67969
17.055	6.67969
17.06	6.67969
17.065	6.67969
17.07	6.67969
17.075	6.67969
17.08	6.5918
17.085	6.5918
17.09	6.5918
17.095	6.5918
17.1	6.5918
17.105	6.5918
17.11	6.5918
17.115	6.5918
17.12	6.5918
17.125	6.5918
17.13	6.5918
17.135	6.50391
17.14	6.50391
17.145	6.50391
17.15	6.50391
17.155	6.50391
17.16	6.50391
17.165	6.50391
17.17	6.41602
17.175	6.41602
17.18	6.41602
17.185	6.41602
17.19	6.41602
17.195	6.41602
17.2	6.41602
17.205	6.41602
17.21	6.32812
17.215	6.32812
17.22	6.32812
17.225	6.32812
17.23	6.32812
17.235	6.32812
17.24	6.32812
17.245	6.32812
17.25	6.32812
17.255	6.32812
17.26	6.32812
17.265	6.24023
17.27	6.24023
17.275	6.24023
17.28	6.24023
17.285	6.24023
17.29	6.24023
17.295	6.24023
17.3	6.24023
17.305	6.24023
17.31	6.15234
17.315	6.15234
17.32	6.15234
17.325	6.15234
17.33	6.15234
17.335	6.15234
17.34	6.15234
17.345	6.15234
17.35	6.15234
17.355	6.15234
17.36	6.15234
17.365	6.15234
17.37	6.15234
17.375	6.15234
17.38	6.06445
17.385	6.06445
17.39	6.06445
17.395	6.06445
17.4	6.06445
17.405	6.06445
17.41	6.06445
17.415	6.06445
17.42	6.06445
17.425	6.06445
17.43	6.06445
17.435	5.97656
17.44	5.97656
17.445	5.97656
17.45	5.97656
17.455	5.97656
17.46	5.97656
17.465	5.97656
17.47	5.97656
17.475	5.97656
17.48	5.97656
17.485	5.97656
17.49	5.97656
17.495	5.97656
17.5	5.97656
17.505	5.97656
17.51	5.97656
17.515	5.97656
17.52	5.97656
17.525	5.97656
17.53	5.97656
17.535	5.97656
17.54	5.97656
17.545	5.97656
17.55	5.97656
17.555	5.97656
17.56	5.97656
17.565	5.97656
17.57	5.97656
17.575	5.97656
17.58	5.97656
17.585	5.97656
17.59	5.97656
17.595	5.97656
17.6	5.88867
17.605	5.88867
17.61	5.88867
17.615	5.88867
17.62	5.88867
17.625	5.88867
17.63	5.88867
17.635	5.88867
17.64	5.88867
17.645	5.88867
17.65	5.88867
17.655	5.88867
17.66	5.88867
17.665	5.88867
17.67	5.88867
17.675	5.88867
17.68	5.88867
17.685	5.88867
17.69	5.88867
17.695	5.88867
17.7	5.80078
17.705	5.80078
17.71	5.80078
17.715	5.80078
17.72	5.80078
17.725	5.80078
17.73	5.80078
17.735	5.80078
17.74	5.80078
17.745	5.80078
17.75	5.80078
17.755	5.80078
17.76	5.80078
17.765	5.80078
17.77	5.80078
17.775	5.80078
17.78	5.80078
17.785	5.71289
17.79	5.71289
17.795	5.71289
17.8	5.71289
17.805	5.71289
17.81	5.71289
17.815	5.71289
17.82	5.71289
17.825	5.71289
17.83	5.71289
17.835	5.71289
17.84	5.71289
17.845	5.71289
17.85	5.625
17.855	5.625
17.86	5.625
17.865	5.625
17.87	5.625
17.875	5.625
17.88	5.625
17.885	5.625
17.89	5.625
17.895	5.625
17.9	5.625
17.905	5.625
17.91	5.53711
17.915	5.625
17.92	5.53711
17.925	5.53711
17.93	5.53711
17.935	5.53711
17.94	5.53711
17.945	5.53711
17.95	5.53711
17.955	5.53711
17.96	5.53711
17.965	5.53711
17.97	5.53711
17.975	5.53711
17.98	5.53711
17.985	5.53711
17.99	5.53711
17.995	5.53711
18	5.44922
18.005	5.44922
18.01	5.44922
18.015	5.44922
18.02	5.44922
18.025	5.44922
18.03	5.44922
18.035	5.44922
18.04	5.44922
18.045	5.44922
18.05	5.44922
18.055	5.44922
18.06	5.44922
18.065	5.44922
18.07	5.44922
18.075	5.44922
18.08	5.44922
18.085	5.44922
18.09	5.44922
18.095	5.44922
18.1	5.44922
18.105	5.44922
18.11	5.44922
18.115	5.44922
18.12	5.44922
18.125	5.44922
18.13	5.44922
18.135	5.44922
18.14	5.44922
18.145	5.44922
18.15	5.44922
18.155	5.44922
18.16	5.44922
18.165	5.44922
18.17	5.44922
18.175	5.44922
18.18	5.44922
18.185	5.44922
18.19	5.44922
18.195	5.44922
18.2	5.44922
18.205	5.44922
18.21	5.44922
18.215	5.44922
18.22	5.44922
18.225	5.44922
18.23	5.44922
18.235	5.44922
18.24	5.44922
18.245	5.44922
18.25	5.44922
18.255	5.53711
18.26	5.53711
18.265	5.53711
18.27	5.53711
18.275	5.53711
18.28	5.53711
18.285	5.53711
18.29	5.53711
18.295	5.53711
18.3	5.53711
18.305	5.53711
18.31	5.53711
18.315	5.53711
18.32	5.53711
18.325	5.53711
18.33	5.53711
18.335	5.53711
18.34	5.53711
18.345	5.53711
18.35	5.53711
18.355	5.53711
18.36	5.625
18.365	5.625
18.37	5.625
18.375	5.625
18.38	5.625
18.385	5.625
18.39	5.625
18.395	5.625
18.4	5.625
18.405	5.625
18.41	5.625
18.415	5.625
18.42	5.625
18.425	5.625
18.43	5.625
18.435	5.625
18.44	5.625
18.445	5.625
18.45	5.625
18.455	5.625
18.46	5.625
18.465	5.625
18.47	5.625
18.475	5.625
18.48	5.625
18.485	5.625
18.49	5.625
18.495	5.625
18.5	5.625
18.505	5.625
18.51	5.625
18.515	5.71289
18.52	5.625
18.525	5.625
18.53	5.71289
18.535	5.71289
18.54	5.71289
18.545	5.71289
18.55	5.71289
18.555	5.71289
18.56	5.71289
18.565	5.71289
18.57	5.71289
18.575	5.71289
18.58	5.71289
18.585	5.71289
18.59	5.71289
18.595	5.71289
18.6	5.80078
18.605	5.80078
18.61	5.80078
18.615	5.80078
18.62	5.80078
18.625	5.80078
18.63	5.80078
18.635	5.80078
18.64	5.80078
18.645	5.80078
18.65	5.80078
18.655	5.80078
18.66	5.80078
18.665	5.80078
18.67	5.80078
18.675	5.80078
18.68	5.88867
18.685	5.88867
18.69	5.88867
18.695	5.88867
18.7	5.88867
18.705	5.88867
18.71	5.88867
18.715	5.88867
18.72	5.88867
18.725	5.97656
18.73	5.97656
18.735	5.97656
18.74	5.97656
18.745	5.97656
18.75	5.97656
18.755	5.97656
18.76	5.97656
18.765	5.97656
18.77	5.97656
18.775	5.97656
18.78	5.97656
18.785	5.97656
18.79	5.97656
18.795	5.97656
18.8	5.97656
18.805	5.97656
18.81	5.97656
18.815	5.97656
18.82	5.97656
18.825	5.97656
18.83	5.97656
18.835	5.97656
18.84	5.97656
18.845	5.97656
18.85	6.06445
18.855	6.06445
18.86	6.06445
18.865	6.06445
18.87	6.06445
18.875	6.06445
18.88	6.06445
18.885	6.06445
18.89	6.06445
18.895	6.06445
18.9	6.06445
18.905	6.06445
18.91	5.97656
18.915	6.06445
18.92	6.06445
18.925	6.06445
18.93	6.06445
18.935	6.06445
18.94	5.97656
18.945	6.06445
18.95	5.97656
18.955	5.97656
18.96	6.06445
18.965	5.97656
18.97	6.06445
18.975	6.06445
18.98	5.97656
18.985	6.06445
18.99	6.06445
18.995	5.97656
19	6.06445
19.005	5.97656
19.01	5.97656
19.015	6.06445
19.02	5.97656
19.025	6.06445
19.03	6.06445
19.035	6.06445
19.04	6.06445
19.045	6.06445
19.05	6.06445
19.055	5.97656
19.06	6.06445
19.065	5.97656
19.07	6.06445
19.075	6.06445
19.08	6.06445
19.085	6.06445
19.09	6.06445
19.095	6.06445
19.1	6.06445
19.105	6.06445
19.11	6.06445
19.115	6.06445
19.12	6.06445
19.125	6.06445
19.13	6.06445
19.135	6.06445
19.14	6.06445
19.145	6.06445
19.15	6.06445
19.155	6.06445
19.16	6.06445
19.165	6.06445
19.17	6.06445
19.175	6.06445
19.18	6.06445
19.185	6.06445
19.19	6.06445
19.195	6.06445
19.2	6.06445
19.205	6.06445
19.21	6.06445
19.215	6.06445
19.22	6.06445
19.225	6.06445
19.23	6.06445
19.235	6.06445
19.24	6.06445
19.245	6.06445
19.25	6.06445
19.255	6.06445
19.26	6.06445
19.265	6.06445
19.27	6.06445
19.275	6.06445
19.28	6.06445
19.285	6.06445
19.29	6.06445
19.295	6.06445
19.3	6.06445
19.305	6.06445
19.31	6.06445
19.315	6.06445
19.32	6.06445
19.325	6.06445
19.33	6.06445
19.335	6.06445
19.34	6.06445
19.345	6.06445
19.35	6.06445
19.355	6.06445
19.36	6.06445
19.365	6.06445
19.37	6.06445
19.375	6.06445
19.38	6.06445
19.385	6.06445
19.39	6.06445
19.395	6.06445
19.4	6.06445
19.405	6.06445
19.41	6.06445
19.415	6.06445
19.42	6.06445
19.425	6.06445
19.43	6.06445
19.435	6.06445
19.44	6.06445
19.445	6.06445
19.45	6.06445
19.455	6.06445
19.46	6.06445
19.465	6.06445
19.47	6.06445
19.475	6.06445
19.48	6.06445
19.485	6.06445
19.49	6.06445
19.495	6.06445
19.5	6.06445
19.505	6.06445
19.51	6.06445
19.515	6.06445
19.52	6.06445
19.525	6.15234
19.53	6.15234
19.535	6.15234
19.54	6.15234
19.545	6.15234
19.55	6.15234
19.555	6.15234
19.56	6.15234
19.565	6.15234
19.57	6.15234
19.575	6.15234
19.58	6.15234
19.585	6.15234
19.59	6.15234
19.595	6.15234
19.6	6.15234
19.605	6.15234
19.61	6.15234
19.615	6.15234
19.62	6.15234
19.625	6.15234
19.63	6.15234
19.635	6.15234
19.64	6.15234
19.645	6.15234
19.65	6.15234
19.655	6.15234
19.66	6.15234
19.665	6.15234
19.67	6.15234
19.675	6.15234
19.68	6.15234
19.685	6.15234
19.69	6.15234
19.695	6.15234
19.7	6.15234
19.705	6.15234
19.71	6.15234
19.715	6.15234
19.72	6.15234
19.725	6.15234
19.73	6.15234
19.735	6.15234
19.74	6.15234
19.745	6.15234
19.75	6.15234
19.755	6.15234
19.76	6.15234
19.765	6.15234
19.77	6.15234
19.775	6.15234
19.78	6.15234
19.785	6.15234
19.79	6.15234
19.795	6.15234
19.8	6.15234
19.805	6.15234
19.81	6.15234
19.815	6.15234
19.82	6.06445
19.825	6.15234
19.83	6.06445
19.835	6.06445
19.84	6.06445
19.845	6.06445
19.85	6.06445
19.855	6.06445
19.86	6.06445
19.865	6.06445
19.87	6.06445
19.875	6.06445
19.88	6.06445
19.885	6.06445
19.89	6.06445
19.895	6.06445
19.9	6.06445
19.905	6.06445
19.91	6.06445
19.915	6.06445
19.92	6.06445
19.925	6.06445
19.93	6.06445
19.935	6.06445
19.94	6.06445
19.945	6.06445
19.95	6.06445
19.955	6.06445
19.96	6.15234
19.965	6.15234
19.97	6.15234
19.975	6.15234
19.98	6.15234
19.985	6.15234
19.99	6.15234
19.995	6.15234
20	6.15234
20.005	6.15234
20.01	6.15234
20.015	6.15234
20.02	6.24023
20.025	6.24023
20.03	6.24023
20.035	6.24023
20.04	6.24023
20.045	6.24023
20.05	6.24023
20.055	6.24023
20.06	6.15234
20.065	6.15234
20.07	6.15234
20.075	6.15234
20.08	6.15234
20.085	6.15234
20.09	6.15234
20.095	6.24023
20.1	6.24023
20.105	6.24023
20.11	6.15234
20.115	6.15234
20.12	6.15234
20.125	6.15234
20.13	6.15234
20.135	6.06445
20.14	6.06445
20.145	6.06445
20.15	5.97656
20.155	5.97656
20.16	5.97656
20.165	5.97656
20.17	5.88867
20.175	5.88867
20.18	5.80078
20.185	5.80078
20.19	5.71289
20.195	5.625
20.2	5.625
20.205	5.44922
20.21	5.36133
20.215	5.27344
20.22	5.27344
20.225	5.18555
20.23	5.18555
20.235	5.00977
20.24	4.92188
20.245	4.83398
20.25	4.6582
20.255	4.6582
20.26	4.57031
20.265	4.30664
20.27	4.21875
20.275	4.21875
20.28	3.86719
20.285	3.69141
20.29	3.60352
20.295	3.16406
20.3	3.07617
20.305	2.98828
20.31	2.63672
20.315	2.54883
20.32	2.10938
20.325	2.02148
20.33	1.8457
20.335	1.58203
20.34	1.40625
20.345	1.23047
20.35	0.791016
20.355	0.615234
20.36	0.439453
20.365	0.0878906
20.37	-0.0878906
20.375	-0.263672
20.38	-0.791016
20.385	-1.05469
20.39	-1.58203
20.395	-1.75781
20.4	-2.02148
20.405	-2.63672
20.41	-2.8125
20.415	-3.42773
20.42	-3.69141
20.425	-3.86719
20.43	-4.30664
20.435	-4.48242
20.44	-4.6582
20.445	-5.36133
20.45	-5.53711
20.455	-5.80078
20.46	-6.15234
20.465	-6.32812
20.47	-6.5918
20.475	-7.20703
20.48	-7.38281
20.485	-7.99805
20.49	-8.17383
20.495	-8.34961
20.5	-8.61328
20.505	-8.87695
20.51	-9.05273
20.515	-9.66797
20.52	-9.84375
20.525	-9.93164
20.53	-10.5469
20.535	-10.6348
20.54	-10.7227
20.545	-10.9863
20.55	-11.0742
20.555	-11.1621
20.56	-11.6016
20.565	-11.6016
20.57	-11.8652
20.575	-11.9531
20.58	-11.9531
20.585	-12.1289
20.59	-12.1289
20.595	-12.2168
20.6	-12.2168
20.605	-12.2168
20.61	-12.2168
20.615	-12.2168
20.62	-12.1289
20.625	-12.1289
20.63	-12.041
20.635	-11.9531
20.64	-11.9531
20.645	-11.7773
20.65	-11.6895
20.655	-11.6016
20.66	-11.25
20.665	-11.1621
20.67	-11.0742
20.675	-10.7227
20.68	-10.6348
20.685	-10.459
20.69	-10.0195
20.695	-9.93164
20.7	-9.31641
20.705	-9.05273
20.71	-8.96484
20.715	-8.4375
20.72	-8.26172
20.725	-8.08594
20.73	-7.29492
20.735	-7.03125
20.74	-6.50391
20.745	-6.24023
20.75	-6.06445
20.755	-5.53711
20.76	-5.27344
20.765	-5.09766
20.77	-4.21875
20.775	-4.04297
20.78	-3.86719
20.785	-3.25195
20.79	-3.07617
20.795	-2.90039
20.8	-2.46094
20.805	-2.28516
20.81	-2.10938
20.815	-1.58203
20.82	-1.31836
20.825	-0.615234
20.83	-0.439453
20.835	-0.351562
20.84	0
20.845	0.175781
20.85	0.351562
20.855	0.791016
20.86	0.966797
20.865	1.05469
20.87	1.40625
20.875	1.58203
20.88	1.66992
20.885	2.10938
20.89	2.28516
20.895	2.37305
20.9	2.63672
20.905	2.8125
20.91	2.90039
20.915	3.25195
20.92	3.33984
20.925	3.42773
20.93	3.69141
20.935	3.86719
20.94	3.95508
20.945	4.30664
20.95	4.39453
20.955	4.6582
20.96	4.74609
20.965	4.92188
20.97	5.09766
20.975	5.18555
20.98	5.36133
20.985	5.44922
20.99	5.53711
20.995	5.80078
21	5.80078
21.005	5.88867
21.01	6.15234
21.015	6.24023
21.02	6.32812
21.025	6.50391
21.03	6.50391
21.035	6.67969
21.04	6.76758
21.045	6.85547
21.05	7.03125
21.055	7.11914
21.06	7.20703
21.065	7.38281
21.07	7.38281
21.075	7.55859
21.08	7.55859
21.085	7.64648
21.09	7.73437
21.095	7.82227
21.1	7.91016
21.105	7.91016
21.11	8.17383
21.115	8.26172
21.12	8.4375
21.125	8.52539
21.13	8.61328
21.135	8.78906
21.14	8.78906
21.145	8.87695
21.15	8.96484
21.155	9.05273
21.16	9.14063
21.165	9.31641
21.17	9.4043
21.175	9.49219
21.18	9.66797
21.185	9.66797
21.19	9.75586
21.195	10.0195
21.2	10.0195
21.205	10.2832
21.21	10.3711
21.215	10.459
21.22	10.6348
21.225	10.7227
21.23	10.8984
21.235	10.9863
21.24	11.0742
21.245	11.3379
21.25	11.4258
21.255	11.4258
21.26	11.6016
21.265	11.6895
21.27	11.7773
21.275	12.041
21.28	12.1289
21.285	12.2168
21.29	12.3047
21.295	12.3926
21.3	12.4805
21.305	12.7441
21.31	12.7441
21.315	13.0078
21.32	13.0078
21.325	13.0957
21.33	13.1836
21.335	13.2715
21.34	13.3594
21.345	13.5352
21.35	13.5352
21.355	13.623
21.36	13.7988
21.365	13.8867
21.37	13.8867
21.375	13.9746
21.38	14.0625
21.385	14.0625
21.39	14.1504
21.395	14.2383
21.4	14.2383
21.405	14.4141
21.41	14.4141
21.415	14.502
21.42	14.502
21.425	14.5898
21.43	14.6777
21.435	14.6777
21.44	14.7656
21.445	14.7656
21.45	14.7656
21.455	14.8535
21.46	14.8535
21.465	14.8535
21.47	14.8535
21.475	14.8535
21.48	14.9414
21.485	14.9414
21.49	14.9414
21.495	15.0293
21.5	15.0293
21.505	15.0293
21.51	15.0293
21.515	15.0293
21.52	15.0293
21.525	15.0293
21.53	15.0293
21.535	15.0293
21.54	14.9414
21.545	14.9414
21.55	14.9414
21.555	15.0293
21.56	15.0293
21.565	14.9414
21.57	14.9414
21.575	14.9414
21.58	14.9414
21.585	14.9414
21.59	14.9414
21.595	14.9414
21.6	14.8535
21.605	14.8535
21.61	14.8535
21.615	14.7656
21.62	14.7656
21.625	14.7656
21.63	14.7656
21.635	14.7656
21.64	14.6777
21.645	14.7656
21.65	14.6777
21.655	14.6777
21.66	14.5898
21.665	14.5898
21.67	14.5898
21.675	14.502
21.68	14.502
21.685	14.4141
21.69	14.4141
21.695	14.4141
21.7	14.3262
21.705	14.3262
21.71	14.2383
21.715	14.2383
21.72	14.0625
21.725	14.0625
21.73	13.9746
21.735	13.8867
21.74	13.7988
21.745	13.7988
21.75	13.7109
21.755	13.7109
21.76	13.623
21.765	13.623
21.77	13.5352
21.775	13.5352
21.78	13.4473
21.785	13.4473
21.79	13.3594
21.795	13.3594
21.8	13.2715
21.805	13.2715
21.81	13.2715
21.815	13.1836
21.82	13.1836
21.825	13.1836
21.83	13.1836
21.835	13.1836
21.84	13.1836
21.845	13.0957
21.85	13.0957
21.855	13.0078
21.86	13.0078
21.865	13.0078
21.87	13.0078
21.875	13.0078
21.88	12.9199
21.885	12.9199
21.89	12.9199
21.895	12.832
21.9	12.832
21.905	12.832
21.91	12.832
21.915	12.832
21.92	12.832
21.925	12.832
21.93	12.832
21.935	12.832
21.94	12.832
21.945	12.7441
21.95	12.7441
21.955	12.6562
21.96	12.6562
21.965	12.6562
21.97	12.5684
21.975	12.5684
21.98	12.4805
21.985	12.4805
21.99	12.4805
21.995	12.4805
22	12.3926
22.005	12.3926
22.01	12.3926
22.015	12.3047
22.02	12.3047
22.025	12.3047
22.03	12.3047
22.035	12.2168
22.04	12.2168
22.045	12.1289
22.05	12.1289
22.055	12.1289
22.06	12.1289
22.065	12.1289
22.07	12.041
22.075	12.041
22.08	12.041
22.085	11.9531
22.09	11.9531
22.095	11.9531
22.1	11.8652
22.105	11.8652
22.11	11.7773
22.115	11.7773
22.12	11.7773
22.125	11.7773
22.13	11.6895
22.135	11.6895
22.14	11.6895
22.145	11.6895
22.15	11.6016
22.155	11.6016
22.16	11.5137
22.165	11.5137
22.17	11.4258
22.175	11.4258
22.18	11.4258
22.185	11.3379
22.19	11.3379
22.195	11.25
22.2	11.1621
22.205	11.1621
22.21	11.1621
22.215	11.0742
22.22	11.0742
22.225	10.9863
22.23	10.9863
22.235	10.8984
22.24	10.8984
22.245	10.8105
22.25	10.7227
22.255	10.7227
22.26	10.6348
22.265	10.6348
22.27	10.6348
22.275	10.5469
22.28	10.5469
22.285	10.459
22.29	10.3711
22.295	10.3711
22.3	10.3711
22.305	10.2832
22.31	10.2832
22.315	10.1953
22.32	10.1953
22.325	10.1953
22.33	10.1074
22.335	10.1074
22.34	10.1074
22.345	10.0195
22.35	10.0195
22.355	9.93164
22.36	9.84375
22.365	9.84375
22.37	9.84375
22.375	9.75586
22.38	9.75586
22.385	9.75586
22.39	9.66797
22.395	9.66797
22.4	9.66797
22.405	9.58008
22.41	9.58008
22.415	9.58008
22.42	9.49219
22.425	9.49219
22.43	9.4043
22.435	9.31641
22.44	9.31641
22.445	9.22852
22.45	9.22852
22.455	9.22852
22.46	9.14063
22.465	9.14063
22.47	9.14063
22.475	9.05273
22.48	9.05273
22.485	9.05273
22.49	8.96484
22.495	8.96484
22.5	8.96484
22.505	8.87695
22.51	8.87695
22.515	8.78906
22.52	8.78906
22.525	8.78906
22.53	8.78906
22.535	8.70117
22.54	8.70117
22.545	8.70117
22.55	8.61328
22.555	8.61328
22.56	8.61328
22.565	8.61328
22.57	8.61328
22.575	8.52539
22.58	8.52539
22.585	8.52539
22.59	8.4375
22.595	8.4375
22.6	8.4375
22.605	8.4375
22.61	8.34961
22.615	8.34961
22.62	8.26172
22.625	8.26172
22.63	8.17383
22.635	8.17383
22.64	8.17383
22.645	8.17383
22.65	8.17383
22.655	8.17383
22.66	8.08594
22.665	8.08594
22.67	8.08594
22.675	8.08594
22.68	7.99805
22.685	7.91016
22.69	7.91016
22.695	7.91016
22.7	7.91016
22.705	7.91016
22.71	7.82227
22.715	7.82227
22.72	7.82227
22.725	7.82227
22.73	7.82227
22.735	7.82227
22.74	7.82227
22.745	7.73437
22.75	7.82227
22.755	7.73437
22.76	7.73437
22.765	7.73437
22.77	7.73437
22.775	7.64648
22.78	7.64648
22.785	7.64648
22.79	7.64648
22.795	7.64648
22.8	7.64648
22.805	7.55859
22.81	7.64648
22.815	7.64648
22.82	7.55859
22.825	7.64648
22.83	7.55859
22.835	7.55859
22.84	7.55859
22.845	7.55859
22.85	7.55859
22.855	7.55859
22.86	7.55859
22.865	7.4707
22.87	7.4707
22.875	7.4707
22.88	7.4707
22.885	7.38281
22.89	7.38281
22.895	7.38281
22.9	7.38281
22.905	7.38281
22.91	7.38281
22.915	7.38281
22.92	7.38281
22.925	7.29492
22.93	7.29492
22.935	7.29492
22.94	7.20703
22.945	7.20703
22.95	7.20703
22.955	7.20703
22.96	7.20703
22.965	7.11914
22.97	7.11914
22.975	7.11914
22.98	7.11914
22.985	7.11914
22.99	7.11914
22.995	7.11914
23	7.11914
23.005	7.03125
23.01	7.03125
23.015	7.03125
23.02	7.03125
23.025	6.94336
23.03	6.94336
23.035	6.94336
23.04	6.94336
23.045	6.85547
23.05	6.85547
23.055	6.85547
23.06	6.85547
23.065	6.85547
23.07	6.85547
23.075	6.85547
23.08	6.76758
23.085	6.76758
23.09	6.76758
23.095	6.76758
23.1	6.76758
23.105	6.67969
23.11	6.67969
23.115	6.67969
23.12	6.67969
23.125	6.5918
23.13	6.5918
23.135	6.5918
23.14	6.5918
23.145	6.5918
23.15	6.50391
23.155	6.50391
23.16	6.50391
23.165	6.50391
23.17	6.50391
23.175	6.41602
23.18	6.41602
23.185	6.32812
23.19	6.32812
23.195	6.32812
23.2	6.32812
23.205	6.32812
23.21	6.24023
23.215	6.24023
23.22	6.24023
23.225	6.24023
23.23	6.15234
23.235	6.15234
23.24	6.15234
23.245	6.15234
23.25	6.15234
23.255	6.15234
23.26	6.15234
23.265	6.15234
23.27	6.15234
23.275	6.06445
23.28	6.06445
23.285	6.06445
23.29	6.06445
23.295	6.06445
23.3	5.97656
23.305	5.97656
23.31	5.97656
23.315	5.97656
23.32	5.97656
23.325	5.97656
23.33	5.97656
23.335	5.97656
23.34	5.97656
23.345	5.88867
23.35	5.88867
23.355	5.88867
23.36	5.88867
23.365	5.88867
23.37	5.88867
23.375	5.88867
23.38	5.80078
23.385	5.80078
23.39	5.80078
23.395	5.80078
23.4	5.80078
23.405	5.80078
23.41	5.80078
23.415	5.80078
23.42	5.80078
23.425	5.71289
23.43	5.71289
23.435	5.71289
23.44	5.71289
23.445	5.71289
23.45	5.71289
23.455	5.71289
23.46	5.71289
23.465	5.71289
23.47	5.625
23.475	5.625
23.48	5.625
23.485	5.625
23.49	5.625
23.495	5.625
23.5	5.625
23.505	5.625
23.51	5.625
23.515	5.625
23.52	5.625
23.525	5.625
23.53	5.625
23.535	5.625
23.54	5.625
23.545	5.53711
23.55	5.53711
23.555	5.53711
23.56	5.53711
23.565	5.53711
23.57	5.53711
23.575	5.53711
23.58	5.53711
23.585	5.53711
23.59	5.53711
23.595	5.53711
23.6	5.53711
23.605	5.53711
23.61	5.53711
23.615	5.53711
23.62	5.53711
23.625	5.44922
23.63	5.44922
23.635	5.44922
23.64	5.44922
23.645	5.44922
23.65	5.44922
23.655	5.53711
23.66	5.44922
23.665	5.44922
23.67	5.53711
23.675	5.53711
23.68	5.53711
23.685	5.53711
23.69	5.53711
23.695	5.44922
23.7	5.53711
23.705	5.44922
23.71	5.44922
23.715	5.53711
23.72	5.44922
23.725	5.44922
23.73	5.53711
23.735	5.44922
23.74	5.44922
23.745	5.44922
23.75	5.53711
23.755	5.53711
23.76	5.44922
23.765	5.53711
23.77	5.53711
23.775	5.53711
23.78	5.53711
23.785	5.53711
23.79	5.53711
23.795	5.53711
23.8	5.53711
23.805	5.53711
23.81	5.44922
23.815	5.44922
23.82	5.44922
23.825	5.44922
23.83	5.44922
23.835	5.44922
23.84	5.44922
23.845	5.44922
23.85	5.44922
23.855	5.44922
23.86	5.44922
23.865	5.44922
23.87	5.53711
23.875	5.53711
23.88	5.53711
23.885	5.53711
23.89	5.53711
23.895	5.53711
23.9	5.53711
23.905	5.53711
23.91	5.53711
23.915	5.44922
23.92	5.44922
23.925	5.44922
23.93	5.44922
23.935	5.44922
23.94	5.44922
23.945	5.44922
23.95	5.44922
23.955	5.44922
23.96	5.44922
23.965	5.44922
23.97	5.53711
23.975	5.44922
23.98	5.44922
23.985	5.44922
23.99	5.44922
23.995	5.44922
24	5.44922
24.005	5.44922
24.01	5.44922
24.015	5.44922
24.02	5.44922
24.025	5.44922
24.03	5.44922
24.035	5.44922
24.04	5.44922
24.045	5.44922
24.05	5.44922
24.055	5.44922
24.06	5.44922
24.065	5.44922
24.07	5.44922
24.075	5.44922
24.08	5.44922
24.085	5.44922
24.09	5.44922
24.095	5.44922
24.1	5.44922
24.105	5.44922
24.11	5.44922
24.115	5.36133
24.12	5.36133
24.125	5.36133
24.13	5.36133
24.135	5.36133
24.14	5.36133
24.145	5.36133
24.15	5.36133
24.155	5.36133
24.16	5.36133
24.165	5.36133
24.17	5.36133
24.175	5.36133
24.18	5.36133
24.185	5.36133
24.19	5.36133
24.195	5.27344
24.2	5.27344
24.205	5.27344
24.21	5.27344
24.215	5.27344
24.22	5.27344
24.225	5.27344
24.23	5.27344
24.235	5.27344
24.24	5.27344
24.245	5.27344
24.25	5.27344
24.255	5.27344
24.26	5.27344
24.265	5.27344
24.27	5.27344
24.275	5.27344
24.28	5.27344
24.285	5.27344
24.29	5.27344
24.295	5.27344
24.3	5.27344
24.305	5.27344
24.31	5.27344
24.315	5.18555
24.32	5.18555
24.325	5.18555
24.33	5.18555
24.335	5.18555
24.34	5.18555
24.345	5.18555
24.35	5.18555
24.355	5.18555
24.36	5.18555
24.365	5.18555
24.37	5.18555
24.375	5.18555
24.38	5.18555
24.385	5.18555
24.39	5.18555
24.395	5.18555
24.4	5.18555
24.405	5.18555
24.41	5.18555
24.415	5.18555
24.42	5.18555
24.425	5.18555
24.43	5.18555
24.435	5.18555
24.44	5.18555
24.445	5.18555
24.45	5.18555
24.455	5.18555
24.46	5.18555
24.465	5.18555
24.47	5.18555
24.475	5.18555
24.48	5.27344
24.485	5.27344
24.49	5.27344
24.495	5.27344
24.5	5.27344
24.505	5.27344
24.51	5.27344
24.515	5.27344
24.52	5.27344
24.525	5.27344
24.53	5.27344
24.535	5.27344
24.54	5.27344
24.545	5.27344
24.55	5.27344
24.555	5.27344
24.56	5.27344
24.565	5.27344
24.57	5.27344
24.575	5.27344
24.58	5.27344
24.585	5.27344
24.59	5.27344
24.595	5.27344
24.6	5.27344
24.605	5.27344
24.61	5.27344
24.615	5.27344
24.62	5.27344
24.625	5.27344
24.63	5.27344
24.635	5.27344
24.64	5.27344
24.645	5.27344
24.65	5.27344
24.655	5.27344
24.66	5.27344
24.665	5.27344
24.67	5.27344
24.675	5.27344
24.68	5.27344
24.685	5.27344
24.69	5.27344
24.695	5.27344
24.7	5.27344
24.705	5.36133
24.71	5.27344
24.715	5.36133
24.72	5.27344
24.725	5.27344
24.73	5.27344
24.735	5.27344
24.74	5.27344
24.745	5.27344
24.75	5.27344
24.755	5.27344
24.76	5.27344
24.765	5.27344
24.77	5.27344
24.775	5.27344
24.78	5.27344
24.785	5.27344
24.79	5.27344
24.795	5.27344
24.8	5.27344
24.805	5.27344
24.81	5.27344
24.815	5.27344
24.82	5.27344
24.825	5.27344
24.83	5.27344
24.835	5.27344
24.84	5.27344
24.845	5.27344
24.85	5.27344
24.855	5.27344
24.86	5.27344
24.865	5.27344
24.87	5.27344
24.875	5.27344
24.88	5.27344
24.885	5.27344
24.89	5.27344
24.895	5.27344
24.9	5.27344
24.905	5.27344
24.91	5.27344
24.915	5.27344
24.92	5.27344
24.925	5.27344
24.93	5.27344
24.935	5.27344
24.94	5.27344
24.945	5.27344
24.95	5.27344
24.955	5.27344
24.96	5.27344
24.965	5.27344
24.97	5.27344
24.975	5.27344
24.98	5.36133
24.985	5.36133
24.99	5.36133
24.995	5.36133
25	5.36133
25.005	5.36133
25.01	5.36133
25.015	5.27344
25.02	5.27344
25.025	5.27344
25.03	5.27344
25.035	5.27344
25.04	5.27344
25.045	5.27344
25.05	5.27344
25.055	5.27344
25.06	5.27344
25.065	5.27344
25.07	5.36133
25.075	5.36133
25.08	5.36133
25.085	5.36133
25.09	5.27344
25.095	5.36133
25.1	5.27344
25.105	5.36133
25.11	5.27344
25.115	5.27344
25.12	5.36133
25.125	5.27344
25.13	5.36133
25.135	5.27344
25.14	5.27344
25.145	5.36133
25.15	5.36133
25.155	5.27344
25.16	5.27344
25.165	5.27344
25.17	5.27344
25.175	5.27344
25.18	5.27344
25.185	5.27344
25.19	5.27344
25.195	5.27344
25.2	5.27344
25.205	5.27344
25.21	5.18555
25.215	5.27344
25.22	5.09766
25.225	5.18555
25.23	5.09766
25.235	5.09766
25.24	5.00977
25.245	5.00977
25.25	5.00977
25.255	5.00977
25.26	5.00977
25.265	5.00977
25.27	4.92188
25.275	4.92188
25.28	4.92188
25.285	4.92188
25.29	4.92188
25.295	4.83398
25.3	4.83398
25.305	4.83398
25.31	4.83398
25.315	4.83398
25.32	4.83398
25.325	4.83398
25.33	4.83398
25.335	4.83398
25.34	4.83398
25.345	4.74609
25.35	4.74609
25.355	4.74609
25.36	4.74609
25.365	4.74609
25.37	4.74609
25.375	4.83398
25.38	4.83398
25.385	4.83398
25.39	4.83398
25.395	4.83398
25.4	4.83398
25.405	4.74609
25.41	4.74609
25.415	4.83398
25.42	4.74609
25.425	4.74609
25.43	4.74609
25.435	4.74609
25.44	4.83398
25.445	4.83398
25.45	4.83398
25.455	4.83398
25.46	4.83398
25.465	4.83398
25.47	4.83398
25.475	4.83398
25.48	4.74609
25.485	4.74609
25.49	4.74609
25.495	4.74609
25.5	4.6582
25.505	4.6582
25.51	4.6582
25.515	4.6582
25.52	4.74609
25.525	4.6582
25.53	4.6582
25.535	4.6582
25.54	4.6582
25.545	4.57031
25.55	4.57031
25.555	4.57031
25.56	4.48242
25.565	4.39453
25.57	4.39453
25.575	4.39453
25.58	4.39453
25.585	4.30664
25.59	4.30664
25.595	4.21875
25.6	4.21875
25.605	4.21875
25.61	4.04297
25.615	4.13086
25.62	4.13086
25.625	4.04297
25.63	3.95508
25.635	3.95508
25.64	3.95508
25.645	3.95508
25.65	3.86719
25.655	3.86719
25.66	3.7793
25.665	3.69141
25.67	3.69141
25.675	3.60352
25.68	3.60352
25.685	3.51563
25.69	3.42773
25.695	3.42773
25.7	3.42773
25.705	3.42773
25.71	3.33984
25.715	3.33984
25.72	3.33984
25.725	3.33984
25.73	3.25195
25.735	3.25195
25.74	3.16406
25.745	3.16406
25.75	3.16406
25.755	3.07617
25.76	3.16406
25.765	3.07617
25.77	3.07617
25.775	3.16406
25.78	3.07617
25.785	2.98828
25.79	2.98828
25.795	2.98828
25.8	2.98828
25.805	2.98828
25.81	2.98828
25.815	2.98828
25.82	2.98828
25.825	3.07617
25.83	3.07617
25.835	3.07617
25.84	3.16406
25.845	3.16406
25.85	3.25195
25.855	3.25195
25.86	3.25195
25.865	3.33984
25.87	3.33984
25.875	3.33984
25.88	3.42773
25.885	3.42773
25.89	3.51563
25.895	3.51563
25.9	3.60352
25.905	3.69141
25.91	3.7793
25.915	3.7793
25.92	3.86719
25.925	3.86719
25.93	4.04297
25.935	4.04297
25.94	4.13086
25.945	4.21875
25.95	4.39453
25.955	4.39453
25.96	4.48242
25.965	4.57031
25.97	4.57031
25.975	4.6582
25.98	4.74609
25.985	4.83398
25.99	4.92188
25.995	5.00977
26	5.00977
26.005	5.09766
26.01	5.18555
26.015	5.27344
26.02	5.36133
26.025	5.36133
26.03	5.53711
26.035	5.625
26.04	5.80078
26.045	5.80078
26.05	5.80078
26.055	5.88867
26.06	5.97656
26.065	5.97656
26.07	6.06445
26.075	6.06445
26.08	6.15234
26.085	6.15234
26.09	6.24023
26.095	6.24023
26.1	6.32812
26.105	6.32812
26.11	6.32812
26.115	6.41602
26.12	6.41602
26.125	6.41602
26.13	6.41602
26.135	6.50391
26.14	6.50391
26.145	6.50391
26.15	6.50391
26.155	6.5918
26.16	6.5918
26.165	6.5918
26.17	6.5918
26.175	6.5918
26.18	6.5918
26.185	6.5918
26.19	6.5918
26.195	6.5918
26.2	6.5918
26.205	6.5918
26.21	6.5918
26.215	6.5918
26.22	6.5918
26.225	6.5918
26.23	6.5918
26.235	6.5918
26.24	6.5918
26.245	6.5918
26.25	6.5918
26.255	6.5918
26.26	6.5918
26.265	6.5918
26.27	6.5918
26.275	6.5918
26.28	6.5918
26.285	6.5918
26.29	6.5918
26.295	6.5918
26.3	6.5918
26.305	6.50391
26.31	6.50391
26.315	6.50391
26.32	6.50391
26.325	6.50391
26.33	6.50391
26.335	6.50391
26.34	6.50391
26.345	6.50391
26.35	6.50391
26.355	6.50391
26.36	6.50391
26.365	6.50391
26.37	6.50391
26.375	6.50391
26.38	6.50391
26.385	6.50391
26.39	6.50391
26.395	6.50391
26.4	6.50391
26.405	6.50391
26.41	6.50391
26.415	6.50391
26.42	6.50391
26.425	6.50391
26.43	6.50391
26.435	6.50391
26.44	6.50391
26.445	6.50391
26.45	6.50391
26.455	6.50391
26.46	6.50391
26.465	6.50391
26.47	6.50391
26.475	6.50391
26.48	6.50391
26.485	6.50391
26.49	6.50391
26.495	6.50391
26.5	6.50391
26.505	6.50391
26.51	6.50391
26.515	6.50391
26.52	6.5918
26.525	6.5918
26.53	6.5918
26.535	6.5918
26.54	6.5918
26.545	6.5918
26.55	6.5918
26.555	6.5918
26.56	6.5918
26.565	6.67969
26.57	6.67969
26.575	6.67969
26.58	6.67969
26.585	6.67969
26.59	6.67969
26.595	6.67969
26.6	6.67969
26.605	6.67969
26.61	6.67969
26.615	6.67969
26.62	6.76758
26.625	6.76758
26.63	6.76758
26.635	6.76758
26.64	6.76758
26.645	6.76758
26.65	6.76758
26.655	6.76758
26.66	6.76758
26.665	6.85547
26.67	6.85547
26.675	6.85547
26.68	6.85547
26.685	6.85547
26.69	6.85547
26.695	6.85547
26.7	6.85547
26.705	6.85547
26.71	6.94336
26.715	6.94336
26.72	6.94336
26.725	6.94336
26.73	6.94336
26.735	6.94336
26.74	6.94336
26.745	6.94336
26.75	7.03125
26.755	7.03125
26.76	7.03125
26.765	7.03125
26.77	7.03125
26.775	7.03125
26.78	7.03125
26.785	7.03125
26.79	7.03125
26.795	7.03125
26.8	7.03125
26.805	7.03125
26.81	7.03125
26.815	7.03125
26.82	7.03125
26.825	7.03125
26.83	6.94336
26.835	6.94336
26.84	6.94336
26.845	6.94336
26.85	6.94336
26.855	6.94336
26.86	6.94336
26.865	6.94336
26.87	6.85547
26.875	6.85547
26.88	6.85547
26.885	6.85547
26.89	6.85547
26.895	6.85547
26.9	6.85547
26.905	6.85547
26.91	6.85547
26.915	6.85547
26.92	6.85547
26.925	6.76758
26.93	6.85547
26.935	6.76758
26.94	6.76758
26.945	6.76758
26.95	6.76758
26.955	6.67969
26.96	6.67969
26.965	6.67969
26.97	6.67969
26.975	6.67969
26.98	6.67969
26.985	6.67969
26.99	6.5918
26.995	6.5918
27	6.5918
27.005	6.5918
27.01	6.5918
27.015	6.5918
27.02	6.50391
27.025	6.50391
27.03	6.50391
27.035	6.50391
27.04	6.50391
27.045	6.50391
27.05	6.50391
27.055	6.50391
27.06	6.41602
27.065	6.41602
27.07	6.41602
27.075	6.41602
27.08	6.41602
27.085	6.41602
27.09	6.41602
27.095	6.32812
27.1	6.32812
27.105	6.32812
27.11	6.32812
27.115	6.32812
27.12	6.32812
27.125	6.32812
27.13	6.32812
27.135	6.24023
27.14	6.24023
27.145	6.24023
27.15	6.24023
27.155	6.24023
27.16	6.24023
27.165	6.24023
27.17	6.24023
27.175	6.24023
27.18	6.24023
27.185	6.24023
27.19	6.24023
27.195	6.24023
27.2	6.24023
27.205	6.15234
27.21	6.24023
27.215	6.15234
27.22	6.15234
27.225	6.15234
27.23	6.15234
27.235	6.15234
27.24	6.15234
27.245	6.15234
27.25	6.15234
27.255	6.15234
27.26	6.15234
27.265	6.15234
27.27	6.15234
27.275	6.15234
27.28	6.15234
27.285	6.15234
27.29	6.15234
27.295	6.15234
27.3	6.15234
27.305	6.15234
27.31	6.15234
27.315	6.15234
27.32	6.06445
27.325	6.06445
27.33	6.06445
27.335	6.06445
27.34	6.06445
27.345	6.06445
27.35	6.06445
27.355	6.06445
27.36	6.06445
27.365	6.06445
27.37	6.06445
27.375	6.06445
27.38	6.06445
27.385	6.06445
27.39	6.06445
27.395	6.06445
27.4	6.06445
27.405	6.06445
27.41	6.06445
27.415	6.06445
27.42	6.06445
27.425	6.06445
27.43	6.06445
27.435	6.06445
27.44	6.06445
27.445	6.06445
27.45	6.06445
27.455	6.06445
27.46	6.06445
27.465	6.06445
27.47	6.06445
27.475	6.06445
27.48	6.06445
27.485	6.06445
27.49	6.06445
27.495	6.06445
27.5	6.06445
27.505	6.06445
27.51	6.06445
27.515	6.06445
27.52	6.15234
27.525	6.06445
27.53	6.06445
27.535	6.06445
27.54	6.06445
27.545	6.06445
27.55	6.06445
27.555	6.06445
27.56	6.06445
27.565	6.06445
27.57	6.06445
27.575	6.06445
27.58	6.06445
27.585	6.06445
27.59	6.06445
27.595	6.06445
27.6	6.06445
27.605	6.06445
27.61	6.06445
27.615	6.06445
27.62	6.06445
27.625	6.06445
27.63	6.06445
27.635	6.06445
27.64	6.06445
27.645	6.06445
27.65	6.06445
27.655	6.06445
27.66	6.06445
27.665	6.06445
27.67	6.06445
27.675	6.06445
27.68	6.06445
27.685	6.06445
27.69	6.06445
27.695	6.06445
27.7	6.06445
27.705	6.06445
27.71	6.06445
27.715	6.06445
27.72	6.06445
27.725	6.06445
27.73	6.06445
27.735	6.06445
27.74	5.97656
27.745	5.97656
27.75	5.97656
27.755	5.97656
27.76	5.97656
27.765	5.97656
27.77	5.97656
27.775	5.97656
27.78	5.97656
27.785	5.97656
27.79	5.97656
27.795	5.97656
27.8	5.97656
27.805	5.97656
27.81	5.97656
27.815	5.97656
27.82	5.97656
27.825	5.97656
27.83	5.97656
27.835	5.97656
27.84	5.97656
27.845	5.88867
27.85	5.88867
27.855	5.88867
27.86	5.88867
27.865	5.88867
27.87	5.88867
27.875	5.88867
27.88	5.88867
27.885	5.88867
27.89	5.88867
27.895	5.88867
27.9	5.88867
27.905	5.88867
27.91	5.88867
27.915	5.88867
27.92	5.88867
27.925	5.88867
27.93	5.88867
27.935	5.88867
27.94	5.88867
27.945	5.88867
27.95	5.88867
27.955	5.88867
27.96	5.88867
27.965	5.88867
27.97	5.88867
27.975	5.88867
27.98	5.88867
27.985	5.88867
27.99	5.88867
27.995	5.88867
28	5.88867
28.005	5.88867
28.01	5.88867
28.015	5.88867
28.02	5.80078
28.025	5.88867
28.03	5.88867
28.035	5.88867
28.04	5.80078
28.045	5.88867
28.05	5.88867
28.055	5.88867
28.06	5.80078
28.065	5.80078
28.07	5.80078
28.075	5.80078
28.08	5.80078
28.085	5.80078
28.09	5.80078
28.095	5.80078
28.1	5.80078
28.105	5.80078
28.11	5.88867
28.115	5.88867
28.12	5.88867
28.125	5.88867
28.13	5.88867
28.135	5.88867
28.14	5.88867
28.145	5.88867
28.15	5.88867
28.155	5.88867
28.16	5.88867
28.165	5.88867
28.17	5.88867
28.175	5.88867
28.18	5.88867
28.185	5.88867
28.19	5.88867
28.195	5.88867
28.2	5.88867
28.205	5.88867
28.21	5.88867
28.215	5.88867
28.22	5.88867
28.225	5.88867
28.23	5.88867
28.235	5.88867
28.24	5.88867
28.245	5.88867
28.25	5.88867
28.255	5.88867
28.26	5.88867
28.265	5.88867
28.27	5.88867
28.275	5.88867
28.28	5.88867
28.285	5.88867
28.29	5.97656
28.295	5.97656
28.3	5.97656
28.305	5.97656
28.31	5.97656
28.315	5.97656
28.32	5.97656
28.325	5.97656
28.33	5.97656
28.335	5.97656
28.34	5.97656
28.345	5.97656
28.35	5.97656
28.355	5.97656
28.36	5.97656
28.365	5.97656
28.37	5.97656
28.375	5.97656
28.38	5.97656
28.385	5.97656
28.39	5.97656
28.395	5.97656
28.4	5.97656
28.405	5.97656
28.41	5.97656
28.415	5.97656
28.42	5.97656
28.425	5.97656
28.43	5.97656
28.435	5.97656
28.44	5.97656
28.445	5.97656
28.45	5.97656
28.455	5.97656
28.46	5.97656
28.465	5.97656
28.47	5.97656
28.475	5.97656
28.48	5.97656
28.485	5.97656
28.49	5.97656
28.495	5.97656
28.5	5.97656
28.505	5.97656
28.51	5.97656
28.515	5.97656
28.52	6.06445
28.525	6.06445
28.53	6.06445
28.535	6.06445
28.54	6.06445
28.545	6.06445
28.55	6.06445
28.555	6.06445
28.56	6.06445
28.565	6.06445
28.57	6.06445
28.575	6.06445
28.58	6.06445
28.585	6.06445
28.59	6.06445
28.595	6.06445
28.6	6.06445
28.605	6.06445
28.61	6.06445
28.615	6.06445
28.62	6.06445
28.625	6.06445
28.63	6.06445
28.635	6.15234
28.64	6.15234
28.645	6.15234
28.65	6.15234
28.655	6.15234
28.66	6.15234
28.665	6.15234
28.67	6.15234
28.675	6.15234
28.68	6.15234
28.685	6.15234
28.69	6.15234
28.695	6.15234
28.7	6.15234
28.705	6.15234
28.71	6.15234
28.715	6.15234
28.72	6.15234
28.725	6.15234
28.73	6.15234
28.735	6.15234
28.74	6.15234
28.745	6.15234
28.75	6.15234
28.755	6.15234
28.76	6.15234
28.765	6.15234
28.77	6.15234
28.775	6.15234
28.78	6.15234
28.785	6.15234
28.79	6.24023
28.795	6.24023
28.8	6.24023
28.805	6.24023
28.81	6.15234
28.815	6.24023
28.82	6.24023
28.825	6.24023
28.83	6.24023
28.835	6.24023
28.84	6.24023
28.845	6.24023
28.85	6.24023
28.855	6.24023
28.86	6.24023
28.865	6.24023
28.87	6.24023
28.875	6.24023
28.88	6.24023
28.885	6.24023
28.89	6.24023
28.895	6.24023
28.9	6.24023
28.905	6.24023
28.91	6.24023
28.915	6.24023
28.92	6.24023
28.925	6.24023
28.93	6.24023
28.935	6.24023
28.94	6.32812
28.945	6.32812
28.95	6.32812
28.955	6.32812
28.96	6.32812
28.965	6.32812
28.97	6.32812
28.975	6.32812
28.98	6.32812
28.985	6.32812
28.99	6.32812
28.995	6.32812
29	6.32812
29.005	6.32812
29.01	6.32812
29.015	6.32812
29.02	6.32812
29.025	6.32812
29.03	6.32812
29.035	6.32812
29.04	6.32812
29.045	6.32812
29.05	6.32812
29.055	6.32812
29.06	6.32812
29.065	6.32812
29.07	6.32812
29.075	6.32812
29.08	6.32812
29.085	6.32812
29.09	6.41602
29.095	6.41602
29.1	6.41602
29.105	6.41602
29.11	6.41602
29.115	6.41602
29.12	6.41602
29.125	6.41602
29.13	6.41602
29.135	6.41602
29.14	6.41602
29.145	6.41602
29.15	6.41602
29.155	6.41602
29.16	6.41602
29.165	6.41602
29.17	6.41602
29.175	6.41602
29.18	6.41602
29.185	6.41602
29.19	6.41602
29.195	6.41602
29.2	6.41602
29.205	6.41602
29.21	6.41602
29.215	6.41602
29.22	6.41602
29.225	6.41602
29.23	6.41602
29.235	6.41602
29.24	6.41602
29.245	6.41602
29.25	6.41602
29.255	6.41602
29.26	6.41602
29.265	6.41602
29.27	6.41602
29.275	6.41602
29.28	6.41602
29.285	6.41602
29.29	6.41602
29.295	6.41602
29.3	6.41602
29.305	6.41602
29.31	6.41602
29.315	6.41602
29.32	6.41602
29.325	6.41602
29.33	6.41602
29.335	6.41602
29.34	6.41602
29.345	6.41602
29.35	6.41602
29.355	6.41602
29.36	6.41602
29.365	6.41602
29.37	6.41602
29.375	6.41602
29.38	6.41602
29.385	6.41602
29.39	6.41602
29.395	6.41602
29.4	6.41602
29.405	6.41602
29.41	6.41602
29.415	6.41602
29.42	6.41602
29.425	6.41602
29.43	6.41602
29.435	6.41602
29.44	6.41602
29.445	6.41602
29.45	6.41602
29.455	6.41602
29.46	6.41602
29.465	6.41602
29.47	6.41602
29.475	6.41602
29.48	6.41602
29.485	6.41602
29.49	6.41602
29.495	6.41602
29.5	6.41602
29.505	6.41602
29.51	6.41602
29.515	6.41602
29.52	6.41602
29.525	6.41602
29.53	6.41602
29.535	6.41602
29.54	6.41602
29.545	6.41602
29.55	6.41602
29.555	6.41602
29.56	6.41602
29.565	6.41602
29.57	6.41602
29.575	6.41602
29.58	6.41602
29.585	6.41602
29.59	6.41602
29.595	6.41602
29.6	6.41602
29.605	6.41602
29.61	6.41602
29.615	6.50391
29.62	6.50391
29.625	6.50391
29.63	6.50391
29.635	6.50391
29.64	6.50391
29.645	6.50391
29.65	6.50391
29.655	6.50391
29.66	6.50391
29.665	6.50391
29.67	6.50391
29.675	6.50391
29.68	6.50391
29.685	6.50391
29.69	6.5918
29.695	6.5918
29.7	6.5918
29.705	6.5918
29.71	6.5918
29.715	6.5918
29.72	6.5918
29.725	6.5918
29.73	6.5918
29.735	6.5918
29.74	6.5918
29.745	6.5918
29.75	6.5918
29.755	6.67969
29.76	6.67969
29.765	6.5918
29.77	6.67969
29.775	6.67969
29.78	6.67969
29.785	6.67969
29.79	6.67969
29.795	6.67969
29.8	6.67969
29.805	6.67969
29.81	6.67969
29.815	6.67969
29.82	6.67969
29.825	6.67969
29.83	6.67969
29.835	6.67969
29.84	6.67969
29.845	6.67969
29.85	6.67969
29.855	6.67969
29.86	6.67969
29.865	6.67969
29.87	6.67969
29.875	6.5918
29.88	6.5918
29.885	6.5918
29.89	6.5918
29.895	6.5918
29.9	6.5918
29.905	6.5918
29.91	6.5918
29.915	6.5918
29.92	6.5918
29.925	6.5918
29.93	6.5918
29.935	6.5918
29.94	6.5918
29.945	6.5918
29.95	6.5918
29.955	6.5918
29.96	6.5918
29.965	6.5918
29.97	6.5918
29.975	6.50391
29.98	6.50391
29.985	6.50391
29.99	6.50391
29.995	6.50391
30	6.50391
30.005	6.50391
30.01	6.50391
30.015	6.50391
30.02	6.50391
30.025	6.5918
30.03	6.50391
30.035	6.50391
30.04	6.50391
30.045	6.50391
30.05	6.50391
30.055	6.50391
30.06	6.50391
30.065	6.50391
30.07	6.41602
30.075	6.41602
30.08	6.50391
30.085	6.50391
30.09	6.50391
30.095	6.50391
30.1	6.50391
30.105	6.50391
30.11	6.50391
30.115	6.50391
30.12	6.50391
30.125	6.50391
30.13	6.41602
30.135	6.41602
30.14	6.41602
30.145	6.41602
30.15	6.41602
30.155	6.50391
30.16	6.50391
30.165	6.50391
30.17	6.50391
30.175	6.50391
30.18	6.50391
30.185	6.50391
30.19	6.50391
30.195	6.50391
30.2	6.50391
30.205	6.50391
30.21	6.50391
30.215	6.50391
30.22	6.50391
30.225	6.50391
30.23	6.5918
30.235	6.5918
30.24	6.5918
30.245	6.5918
30.25	6.5918
30.255	6.67969
30.26	6.67969
30.265	6.67969
30.27	6.67969
30.275	6.85547
30.28	6.85547
30.285	7.03125
30.29	7.11914
30.295	7.11914
30.3	7.20703
30.305	7.29492
30.31	7.29492
30.315	7.55859
30.32	7.55859
30.325	7.64648
30.33	7.91016
30.335	8.08594
30.34	8.08594
30.345	8.61328
30.35	8.61328
30.355	9.31641
30.36	9.49219
30.365	10.1074
30.37	10.2832
30.375	10.459
30.38	10.8105
30.385	10.9863
30.39	11.1621
30.395	11.7773
30.4	12.041
30.405	12.6562
30.41	12.9199
30.415	13.1836
30.42	13.8867
30.425	14.1504
30.43	14.4141
30.435	14.8535
30.44	15.1172
30.445	15.3809
30.45	16.084
30.455	16.3477
30.46	16.6113
30.465	17.0508
30.47	17.3145
30.475	17.5781
30.48	18.5449
30.485	18.8086
30.49	19.6875
30.495	19.9512
30.5	20.127
30.505	20.7422
30.51	20.918
30.515	21.0937
30.52	21.7969
30.525	21.9727
30.53	22.4121
30.535	22.5879
30.54	22.7637
30.545	23.0273
30.55	23.2031
30.555	23.2031
30.56	23.5547
30.565	23.5547
30.57	23.7305
30.575	23.9063
30.58	23.9063
30.585	23.9941
30.59	23.9063
30.595	23.9063
30.6	23.8184
30.605	23.7305
30.61	23.7305
30.615	23.5547
30.62	23.4668
30.625	23.3789
30.63	23.1152
30.635	23.0273
30.64	22.5
30.645	22.3242
30.65	22.2363
30.655	21.709
30.66	21.5332
30.665	21.3574
30.67	20.6543
30.675	20.4785
30.68	20.3027
30.685	19.7754
30.69	19.5996
30.695	19.4238
30.7	18.6328
30.705	18.457
30.71	17.7539
30.715	17.4902
30.72	17.4023
30.725	16.6113
30.73	16.3477
30.735	16.1719
30.74	15.3809
30.745	15.293
30.75	15.0293
30.755	14.502
30.76	14.3262
30.765	14.1504
30.77	13.623
30.775	13.4473
30.78	13.3594
30.785	12.832
30.79	12.6562
30.795	12.4805
30.8	12.1289
30.805	11.9531
30.81	11.4258
30.815	11.25
30.82	11.0742
30.825	10.7227
30.83	10.6348
30.835	10.5469
30.84	10.1074
30.845	10.0195
30.85	9.84375
30.855	9.58008
30.86	9.49219
30.865	9.4043
30.87	9.14063
30.875	8.96484
30.88	8.70117
30.885	8.61328
30.89	8.52539
30.895	8.17383
30.9	8.08594
30.905	7.91016
30.91	7.82227
30.915	7.82227
30.92	7.55859
30.925	7.4707
30.93	7.38281
30.935	7.03125
30.94	7.03125
30.945	6.94336
30.95	6.76758
30.955	6.67969
30.96	6.5918
30.965	6.32812
30.97	6.24023
30.975	6.15234
30.98	5.88867
30.985	5.80078
30.99	5.71289
30.995	5.44922
31	5.36133
31.005	5.09766
31.01	5.00977
31.015	4.92188
31.02	4.6582
31.025	4.57031
31.03	4.48242
31.035	4.21875
31.04	4.13086
31.045	3.7793
31.05	3.69141
31.055	3.60352
31.06	3.33984
31.065	3.16406
31.07	3.07617
31.075	2.72461
31.08	2.63672
31.085	2.54883
31.09	2.28516
31.095	2.19727
31.1	2.10938
31.105	1.75781
31.11	1.66992
31.115	1.58203
31.12	1.31836
31.125	1.23047
31.13	1.14258
31.135	0.878906
31.14	0.791016
31.145	0.703125
31.15	0.351562
31.155	0.263672
31.16	0
31.165	-0.0878906
31.17	-0.175781
31.175	-0.351562
31.18	-0.439453
31.185	-0.527344
31.19	-0.703125
31.195	-0.791016
31.2	-0.878906
31.205	-1.05469
31.21	-1.14258
31.215	-1.23047
31.22	-1.49414
31.225	-1.58203
31.23	-1.75781
31.235	-1.8457
31.24	-1.8457
31.245	-2.02148
31.25	-2.02148
31.255	-2.10938
31.26	-2.28516
31.265	-2.28516
31.27	-2.37305
31.275	-2.37305
31.28	-2.46094
31.285	-2.46094
31.29	-2.63672
31.295	-2.72461
31.3	-2.8125
31.305	-2.90039
31.31	-2.90039
31.315	-2.90039
31.32	-2.98828
31.325	-3.07617
31.33	-3.07617
31.335	-3.16406
31.34	-3.16406
31.345	-3.25195
31.35	-3.25195
31.355	-3.33984
31.36	-3.33984
31.365	-3.33984
31.37	-3.33984
31.375	-3.42773
31.38	-3.51563
31.385	-3.51563
31.39	-3.51563
31.395	-3.51563
31.4	-3.60352
31.405	-3.60352
31.41	-3.60352
31.415	-3.60352
31.42	-3.69141
31.425	-3.7793
31.43	-3.7793
31.435	-3.7793
31.44	-3.86719
31.445	-3.86719
31.45	-3.86719
31.455	-3.86719
31.46	-3.86719
31.465	-3.86719
31.47	-3.95508
31.475	-4.04297
31.48	-4.04297
31.485	-4.13086
31.49	-4.13086
31.495	-4.13086
31.5	-4.21875
31.505	-4.21875
31.51	-4.21875
31.515	-4.21875
31.52	-4.30664
31.525	-4.30664
31.53	-4.30664
31.535	-4.39453
31.54	-4.39453
31.545	-4.48242
31.55	-4.57031
31.555	-4.57031
31.56	-4.6582
31.565	-4.6582
31.57	-4.6582
31.575	-4.6582
31.58	-4.74609
31.585	-4.83398
31.59	-4.83398
31.595	-4.83398
31.6	-4.92188
31.605	-4.92188
31.61	-4.92188
31.615	-5.00977
31.62	-5.00977
31.625	-5.00977
31.63	-5.09766
31.635	-5.09766
31.64	-5.09766
31.645	-5.09766
31.65	-5.18555
31.655	-5.18555
31.66	-5.18555
31.665	-5.18555
31.67	-5.18555
31.675	-5.27344
31.68	-5.27344
31.685	-5.27344
31.69	-5.27344
31.695	-5.27344
31.7	-5.27344
31.705	-5.27344
31.71	-5.27344
31.715	-5.27344
31.72	-5.18555
31.725	-5.18555
31.73	-5.18555
31.735	-5.18555
31.74	-5.18555
31.745	-5.18555
31.75	-5.18555
31.755	-5.18555
31.76	-5.09766
31.765	-5.09766
31.77	-5.09766
31.775	-5.09766
31.78	-5.00977
31.785	-5.00977
31.79	-5.00977
31.795	-4.92188
31.8	-4.92188
31.805	-4.83398
31.81	-4.74609
31.815	-4.74609
31.82	-4.74609
31.825	-4.6582
31.83	-4.6582
31.835	-4.57031
31.84	-4.57031
31.845	-4.48242
31.85	-4.48242
31.855	-4.39453
31.86	-4.39453
31.865	-4.30664
31.87	-4.21875
31.875	-4.21875
31.88	-4.13086
31.885	-4.04297
31.89	-3.95508
31.895	-3.86719
31.9	-3.86719
31.905	-3.86719
31.91	-3.7793
31.915	-3.60352
31.92	-3.51563
31.925	-3.51563
31.93	-3.42773
31.935	-3.33984
31.94	-3.16406
31.945	-3.16406
31.95	-2.98828
31.955	-2.90039
31.96	-2.90039
31.965	-2.72461
31.97	-2.72461
31.975	-2.63672
31.98	-2.54883
31.985	-2.46094
31.99	-2.37305
31.995	-2.28516
32	-2.19727
32.005	-2.10938
32.01	-2.10938
32.015	-2.02148
32.02	-1.93359
32.025	-1.75781
32.03	-1.75781
32.035	-1.66992
32.04	-1.58203
32.045	-1.49414
32.05	-1.49414
32.055	-1.40625
32.06	-1.31836
32.065	-1.31836
32.07	-1.23047
32.075	-1.23047
32.08	-1.23047
32.085	-1.14258
32.09	-1.05469
32.095	-1.05469
32.1	-0.966797
32.105	-0.966797
32.11	-0.966797
32.115	-0.878906
