time (s) - Measured	Pitch (deg) - Measured
0	0
0.005	0
0.01	0
0.015	0
0.02	-0.175781
0.025	-0.175781
0.03	-0.175781
0.035	-0.175781
0.04	-0.175781
0.045	-0.175781
0.05	-0.175781
0.055	-0.175781
0.06	-0.0878906
0.065	-0.0878906
0.07	-0.0878906
0.075	-0.0878906
0.08	-0.0878906
0.085	-0.0878906
0.09	-0.0878906
0.095	-0.0878906
0.1	0
0.105	0
0.11	0
0.115	0
0.12	0.0878906
0.125	0.0878906
0.13	0.0878906
0.135	0.0878906
0.14	0.0878906
0.145	0.0878906
0.15	0.0878906
0.155	0.0878906
0.16	0.0878906
0.165	0.0878906
0.17	0.175781
0.175	0.175781
0.18	0.175781
0.185	0.175781
0.19	0.175781
0.195	0.175781
0.2	0.175781
0.205	0.175781
0.21	0.175781
0.215	0.175781
0.22	0.175781
0.225	0.175781
0.23	0.175781
0.235	0.175781
0.24	0.175781
0.245	0.175781
0.25	0.0878906
0.255	0.0878906
0.26	0.0878906
0.265	0.0878906
0.27	0.0878906
0.275	0.0878906
0.28	0.0878906
0.285	0.0878906
0.29	0
0.295	0.0878906
0.3	0.0878906
0.305	0
0.31	0.0878906
0.315	0
0.32	0.0878906
0.325	0.0878906
0.33	0
0.335	0
0.34	0.0878906
0.345	0
0.35	0.0878906
0.355	0
0.36	0.0878906
0.365	0
0.37	0.0878906
0.375	0.0878906
0.38	0.175781
0.385	0.175781
0.39	0.175781
0.395	0.263672
0.4	0.175781
0.405	0.263672
0.41	0.263672
0.415	0.351562
0.42	0.263672
0.425	0.351562
0.43	0.351562
0.435	0.351562
0.44	0.351562
0.445	0.351562
0.45	0.439453
0.455	0.439453
0.46	0.439453
0.465	0.439453
0.47	0.527344
0.475	0.527344
0.48	0.527344
0.485	0.615234
0.49	0.615234
0.495	0.615234
0.5	0.703125
0.505	0.703125
0.51	0.703125
0.515	0.791016
0.52	0.791016
0.525	0.791016
0.53	0.878906
0.535	0.878906
0.54	0.878906
0.545	0.878906
0.55	0.966797
0.555	0.966797
0.56	0.966797
0.565	1.05469
0.57	1.05469
0.575	1.14258
0.58	1.14258
0.585	1.14258
0.59	1.14258
0.595	1.23047
0.6	1.31836
0.605	1.31836
0.61	1.31836
0.615	1.40625
0.62	1.40625
0.625	1.40625
0.63	1.40625
0.635	1.49414
0.64	1.40625
0.645	1.40625
0.65	1.49414
0.655	1.49414
0.66	1.40625
0.665	1.49414
0.67	1.40625
0.675	1.49414
0.68	1.49414
0.685	1.49414
0.69	1.49414
0.695	1.49414
0.7	1.49414
0.705	1.49414
0.71	1.49414
0.715	1.49414
0.72	1.49414
0.725	1.49414
0.73	1.40625
0.735	1.40625
0.74	1.40625
0.745	1.40625
0.75	1.40625
0.755	1.40625
0.76	1.31836
0.765	1.40625
0.77	1.40625
0.775	1.40625
0.78	1.31836
0.785	1.31836
0.79	1.31836
0.795	1.31836
0.8	1.31836
0.805	1.23047
0.81	1.14258
0.815	1.14258
0.82	1.14258
0.825	1.14258
0.83	1.05469
0.835	1.05469
0.84	1.05469
0.845	1.05469
0.85	0.966797
0.855	0.966797
0.86	0.966797
0.865	0.878906
0.87	0.878906
0.875	0.878906
0.88	0.791016
0.885	0.791016
0.89	0.791016
0.895	0.703125
0.9	0.615234
0.905	0.615234
0.91	0.527344
0.915	0.439453
0.92	0.439453
0.925	0.351562
0.93	0.263672
0.935	0.263672
0.94	0.175781
0.945	0.0878906
0.95	0.0878906
0.955	0
0.96	0
0.965	0
0.97	-0.0878906
0.975	-0.175781
0.98	-0.175781
0.985	-0.263672
0.99	-0.351562
0.995	-0.351562
1	-0.439453
1.005	-0.527344
1.01	-0.527344
1.015	-0.703125
1.02	-0.703125
1.025	-0.791016
1.03	-0.878906
1.035	-0.966797
1.04	-0.966797
1.045	-1.05469
1.05	-1.14258
1.055	-1.14258
1.06	-1.23047
1.065	-1.31836
1.07	-1.40625
1.075	-1.40625
1.08	-1.49414
1.085	-1.66992
1.09	-1.66992
1.095	-1.75781
1.1	-1.8457
1.105	-1.8457
1.11	-1.93359
1.115	-2.10938
1.12	-2.19727
1.125	-2.28516
1.13	-2.37305
1.135	-2.46094
1.14	-2.54883
1.145	-2.54883
1.15	-2.63672
1.155	-2.72461
1.16	-2.8125
1.165	-2.90039
1.17	-2.90039
1.175	-3.07617
1.18	-3.07617
1.185	-3.25195
1.19	-3.25195
1.195	-3.33984
1.2	-3.33984
1.205	-3.42773
1.21	-3.51563
1.215	-3.51563
1.22	-3.60352
1.225	-3.60352
1.23	-3.69141
1.235	-3.69141
1.24	-3.7793
1.245	-3.86719
1.25	-3.95508
1.255	-3.95508
1.26	-4.04297
1.265	-4.13086
1.27	-4.13086
1.275	-4.21875
1.28	-4.21875
1.285	-4.21875
1.29	-4.30664
1.295	-4.30664
1.3	-4.48242
1.305	-4.48242
1.31	-4.48242
1.315	-4.57031
1.32	-4.57031
1.325	-4.57031
1.33	-4.6582
1.335	-4.6582
1.34	-4.6582
1.345	-4.6582
1.35	-4.74609
1.355	-4.74609
1.36	-4.74609
1.365	-4.74609
1.37	-4.74609
1.375	-4.6582
1.38	-4.6582
1.385	-4.6582
1.39	-4.6582
1.395	-4.48242
1.4	-4.48242
1.405	-4.48242
1.41	-4.30664
1.415	-4.30664
1.42	-4.21875
1.425	-4.04297
1.43	-4.04297
1.435	-3.95508
1.44	-3.7793
1.445	-3.69141
1.45	-3.51563
1.455	-3.42773
1.46	-3.33984
1.465	-3.16406
1.47	-3.07617
1.475	-2.90039
1.48	-2.8125
1.485	-2.72461
1.49	-2.63672
1.495	-2.37305
1.5	-2.28516
1.505	-2.19727
1.51	-1.93359
1.515	-1.8457
1.52	-1.66992
1.525	-1.49414
1.53	-1.31836
1.535	-1.23047
1.54	-1.14258
1.545	-0.966797
1.55	-0.791016
1.555	-0.527344
1.56	-0.439453
1.565	-0.263672
1.57	0.0878906
1.575	0.263672
1.58	0.351562
1.585	0.703125
1.59	0.791016
1.595	0.966797
1.6	1.31836
1.605	1.49414
1.61	1.58203
1.615	1.8457
1.62	2.02148
1.625	2.10938
1.63	2.37305
1.635	2.54883
1.64	2.63672
1.645	2.90039
1.65	3.07617
1.655	3.51563
1.66	3.60352
1.665	3.86719
1.67	4.04297
1.675	4.30664
1.68	4.39453
1.685	4.48242
1.69	4.6582
1.695	4.74609
1.7	4.83398
1.705	5.00977
1.71	5.09766
1.715	5.18555
1.72	5.27344
1.725	5.36133
1.73	5.44922
1.735	5.53711
1.74	5.625
1.745	5.625
1.75	5.80078
1.755	5.80078
1.76	5.88867
1.765	5.88867
1.77	5.88867
1.775	5.97656
1.78	6.06445
1.785	6.15234
1.79	6.15234
1.795	6.24023
1.8	6.24023
1.805	6.24023
1.81	6.24023
1.815	6.32812
1.82	6.41602
1.825	6.41602
1.83	6.50391
1.835	6.50391
1.84	6.50391
1.845	6.50391
1.85	6.5918
1.855	6.5918
1.86	6.67969
1.865	6.67969
1.87	6.67969
1.875	6.67969
1.88	6.76758
1.885	6.76758
1.89	6.76758
1.895	6.85547
1.9	6.85547
1.905	6.85547
1.91	6.85547
1.915	6.94336
1.92	6.94336
1.925	6.94336
1.93	7.03125
1.935	7.03125
1.94	7.11914
1.945	7.11914
1.95	7.11914
1.955	7.11914
1.96	7.20703
1.965	7.20703
1.97	7.20703
1.975	7.29492
1.98	7.29492
1.985	7.29492
1.99	7.38281
1.995	7.38281
2	7.38281
2.005	7.4707
2.01	7.55859
2.015	7.55859
2.02	7.64648
2.025	7.64648
2.03	7.64648
2.035	7.73437
2.04	7.82227
2.045	7.91016
2.05	7.91016
2.055	7.91016
2.06	7.99805
2.065	8.08594
2.07	8.17383
2.075	8.17383
2.08	8.26172
2.085	8.26172
2.09	8.34961
2.095	8.34961
2.1	8.4375
2.105	8.52539
2.11	8.52539
2.115	8.61328
2.12	8.61328
2.125	8.70117
2.13	8.78906
2.135	8.78906
2.14	8.87695
2.145	8.96484
2.15	8.96484
2.155	9.05273
2.16	9.05273
2.165	9.05273
2.17	9.14063
2.175	9.22852
2.18	9.22852
2.185	9.31641
2.19	9.4043
2.195	9.49219
2.2	9.49219
2.205	9.66797
2.21	9.66797
2.215	9.75586
2.22	9.84375
2.225	9.93164
2.23	9.93164
2.235	10.0195
2.24	10.1074
2.245	10.1953
2.25	10.1953
2.255	10.2832
2.26	10.3711
2.265	10.459
2.27	10.5469
2.275	10.6348
2.28	10.6348
2.285	10.6348
2.29	10.6348
2.295	10.7227
2.3	10.7227
2.305	10.8105
2.31	10.8105
2.315	10.8984
2.32	10.9863
2.325	11.0742
2.33	11.0742
2.335	11.0742
2.34	11.1621
2.345	11.0742
2.35	11.1621
2.355	11.1621
2.36	11.1621
2.365	11.1621
2.37	11.1621
2.375	11.1621
2.38	11.25
2.385	11.25
2.39	11.25
2.395	11.3379
2.4	11.3379
2.405	11.4258
2.41	11.4258
2.415	11.4258
2.42	11.5137
2.425	11.4258
2.43	11.5137
2.435	11.5137
2.44	11.5137
2.445	11.5137
2.45	11.5137
2.455	11.5137
2.46	11.5137
2.465	11.5137
2.47	11.6016
2.475	11.6016
2.48	11.6016
2.485	11.6016
2.49	11.6016
2.495	11.6895
2.5	11.6016
2.505	11.6016
2.51	11.6016
2.515	11.6016
2.52	11.6016
2.525	11.6016
2.53	11.6016
2.535	11.6016
2.54	11.6016
2.545	11.6016
2.55	11.6016
2.555	11.6016
2.56	11.6016
2.565	11.6016
2.57	11.6016
2.575	11.6016
2.58	11.6016
2.585	11.5137
2.59	11.5137
2.595	11.5137
2.6	11.5137
2.605	11.4258
2.61	11.4258
2.615	11.4258
2.62	11.4258
2.625	11.4258
2.63	11.4258
2.635	11.4258
2.64	11.4258
2.645	11.4258
2.65	11.4258
2.655	11.3379
2.66	11.3379
2.665	11.3379
2.67	11.3379
2.675	11.3379
2.68	11.25
2.685	11.25
2.69	11.25
2.695	11.25
2.7	11.25
2.705	11.25
2.71	11.1621
2.715	11.1621
2.72	11.1621
2.725	11.1621
2.73	11.1621
2.735	11.1621
2.74	11.1621
2.745	11.0742
2.75	11.0742
2.755	11.0742
2.76	11.0742
2.765	10.9863
2.77	10.9863
2.775	10.9863
2.78	10.9863
2.785	10.8984
2.79	10.9863
2.795	10.9863
2.8	10.8984
2.805	10.9863
2.81	10.8984
2.815	10.8984
2.82	10.8105
2.825	10.8105
2.83	10.8105
2.835	10.8105
2.84	10.8105
2.845	10.7227
2.85	10.7227
2.855	10.7227
2.86	10.7227
2.865	10.7227
2.87	10.7227
2.875	10.7227
2.88	10.7227
2.885	10.7227
2.89	10.7227
2.895	10.7227
2.9	10.7227
2.905	10.7227
2.91	10.6348
2.915	10.6348
2.92	10.6348
2.925	10.6348
2.93	10.6348
2.935	10.6348
2.94	10.6348
2.945	10.6348
2.95	10.6348
2.955	10.6348
2.96	10.6348
2.965	10.6348
2.97	10.6348
2.975	10.6348
2.98	10.6348
2.985	10.5469
2.99	10.5469
2.995	10.5469
3	10.5469
3.005	10.459
3.01	10.459
3.015	10.5469
3.02	10.459
3.025	10.459
3.03	10.459
3.035	10.459
3.04	10.459
3.045	10.459
3.05	10.459
3.055	10.5469
3.06	10.459
3.065	10.459
3.07	10.459
3.075	10.459
3.08	10.459
3.085	10.459
3.09	10.3711
3.095	10.3711
3.1	10.3711
3.105	10.3711
3.11	10.3711
3.115	10.3711
3.12	10.3711
3.125	10.3711
3.13	10.3711
3.135	10.3711
3.14	10.3711
3.145	10.3711
3.15	10.3711
3.155	10.2832
3.16	10.3711
3.165	10.3711
3.17	10.2832
3.175	10.2832
3.18	10.2832
3.185	10.2832
3.19	10.2832
3.195	10.2832
3.2	10.2832
3.205	10.1953
3.21	10.1953
3.215	10.1953
3.22	10.1953
3.225	10.1953
3.23	10.1953
3.235	10.1953
3.24	10.1074
3.245	10.1074
3.25	10.1074
3.255	10.1074
3.26	10.1074
3.265	10.1074
3.27	10.0195
3.275	10.0195
3.28	10.0195
3.285	10.0195
3.29	10.0195
3.295	10.0195
3.3	9.93164
3.305	9.93164
3.31	9.93164
3.315	9.93164
3.32	9.93164
3.325	9.93164
3.33	9.93164
3.335	9.93164
3.34	9.93164
3.345	9.93164
3.35	9.84375
3.355	9.84375
3.36	9.84375
3.365	9.84375
3.37	9.75586
3.375	9.75586
3.38	9.75586
3.385	9.75586
3.39	9.75586
3.395	9.75586
3.4	9.66797
3.405	9.66797
3.41	9.66797
3.415	9.66797
3.42	9.66797
3.425	9.66797
3.43	9.66797
3.435	9.66797
3.44	9.66797
3.445	9.66797
3.45	9.58008
3.455	9.58008
3.46	9.58008
3.465	9.49219
3.47	9.49219
3.475	9.49219
3.48	9.49219
3.485	9.49219
3.49	9.4043
3.495	9.4043
3.5	9.4043
3.505	9.4043
3.51	9.4043
3.515	9.4043
3.52	9.4043
3.525	9.4043
3.53	9.31641
3.535	9.31641
3.54	9.22852
3.545	9.22852
3.55	9.22852
3.555	9.22852
3.56	9.22852
3.565	9.22852
3.57	9.14063
3.575	9.14063
3.58	9.14063
3.585	9.14063
3.59	9.14063
3.595	9.14063
3.6	9.14063
3.605	9.14063
3.61	9.14063
3.615	9.05273
3.62	9.05273
3.625	9.05273
3.63	9.05273
3.635	9.05273
3.64	9.05273
3.645	8.96484
3.65	8.96484
3.655	8.96484
3.66	8.96484
3.665	8.96484
3.67	8.96484
3.675	8.96484
3.68	8.87695
3.685	8.87695
3.69	8.87695
3.695	8.87695
3.7	8.87695
3.705	8.87695
3.71	8.87695
3.715	8.87695
3.72	8.87695
3.725	8.87695
3.73	8.78906
3.735	8.78906
3.74	8.78906
3.745	8.78906
3.75	8.70117
3.755	8.70117
3.76	8.70117
3.765	8.70117
3.77	8.70117
3.775	8.70117
3.78	8.70117
3.785	8.70117
3.79	8.70117
3.795	8.70117
3.8	8.70117
3.805	8.70117
3.81	8.70117
3.815	8.61328
3.82	8.61328
3.825	8.61328
3.83	8.61328
3.835	8.61328
3.84	8.61328
3.845	8.61328
3.85	8.61328
3.855	8.61328
3.86	8.61328
3.865	8.61328
3.87	8.52539
3.875	8.52539
3.88	8.52539
3.885	8.52539
3.89	8.52539
3.895	8.52539
3.9	8.52539
3.905	8.52539
3.91	8.52539
3.915	8.52539
3.92	8.52539
3.925	8.52539
3.93	8.52539
3.935	8.52539
3.94	8.52539
3.945	8.52539
3.95	8.52539
3.955	8.52539
3.96	8.52539
3.965	8.52539
3.97	8.52539
3.975	8.4375
3.98	8.4375
3.985	8.4375
3.99	8.4375
3.995	8.4375
4	8.4375
4.005	8.4375
4.01	8.4375
4.015	8.4375
4.02	8.4375
4.025	8.4375
4.03	8.4375
4.035	8.4375
4.04	8.4375
4.045	8.4375
4.05	8.4375
4.055	8.4375
4.06	8.4375
4.065	8.4375
4.07	8.4375
4.075	8.4375
4.08	8.4375
4.085	8.4375
4.09	8.4375
4.095	8.4375
4.1	8.4375
4.105	8.4375
4.11	8.4375
4.115	8.4375
4.12	8.4375
4.125	8.4375
4.13	8.4375
4.135	8.4375
4.14	8.4375
4.145	8.4375
4.15	8.4375
4.155	8.4375
4.16	8.4375
4.165	8.4375
4.17	8.4375
4.175	8.4375
4.18	8.4375
4.185	8.4375
4.19	8.4375
4.195	8.4375
4.2	8.4375
4.205	8.4375
4.21	8.4375
4.215	8.4375
4.22	8.34961
4.225	8.34961
4.23	8.34961
4.235	8.34961
4.24	8.34961
4.245	8.34961
4.25	8.34961
4.255	8.34961
4.26	8.34961
4.265	8.4375
4.27	8.34961
4.275	8.34961
4.28	8.4375
4.285	8.34961
4.29	8.34961
4.295	8.34961
4.3	8.34961
4.305	8.34961
4.31	8.34961
4.315	8.34961
4.32	8.34961
4.325	8.34961
4.33	8.34961
4.335	8.34961
4.34	8.34961
4.345	8.34961
4.35	8.34961
4.355	8.34961
4.36	8.34961
4.365	8.34961
4.37	8.34961
4.375	8.34961
4.38	8.34961
4.385	8.34961
4.39	8.34961
4.395	8.34961
4.4	8.34961
4.405	8.34961
4.41	8.34961
4.415	8.34961
4.42	8.34961
4.425	8.34961
4.43	8.34961
4.435	8.34961
4.44	8.34961
4.445	8.34961
4.45	8.34961
4.455	8.34961
4.46	8.34961
4.465	8.34961
4.47	8.34961
4.475	8.34961
4.48	8.34961
4.485	8.34961
4.49	8.34961
4.495	8.34961
4.5	8.34961
4.505	8.34961
4.51	8.34961
4.515	8.34961
4.52	8.26172
4.525	8.26172
4.53	8.26172
4.535	8.26172
4.54	8.26172
4.545	8.26172
4.55	8.26172
4.555	8.26172
4.56	8.26172
4.565	8.26172
4.57	8.26172
4.575	8.26172
4.58	8.26172
4.585	8.26172
4.59	8.26172
4.595	8.26172
4.6	8.26172
4.605	8.26172
4.61	8.26172
4.615	8.26172
4.62	8.26172
4.625	8.26172
4.63	8.26172
4.635	8.26172
4.64	8.26172
4.645	8.26172
4.65	8.26172
4.655	8.26172
4.66	8.26172
4.665	8.26172
4.67	8.26172
4.675	8.26172
4.68	8.17383
4.685	8.17383
4.69	8.17383
4.695	8.17383
4.7	8.17383
4.705	8.17383
4.71	8.17383
4.715	8.17383
4.72	8.17383
4.725	8.17383
4.73	8.17383
4.735	8.17383
4.74	8.17383
4.745	8.17383
4.75	8.17383
4.755	8.17383
4.76	8.17383
4.765	8.17383
4.77	8.17383
4.775	8.17383
4.78	8.17383
4.785	8.17383
4.79	8.17383
4.795	8.17383
4.8	8.17383
4.805	8.17383
4.81	8.17383
4.815	8.17383
4.82	8.17383
4.825	8.17383
4.83	8.17383
4.835	8.17383
4.84	8.17383
4.845	8.17383
4.85	8.17383
4.855	8.17383
4.86	8.17383
4.865	8.17383
4.87	8.17383
4.875	8.17383
4.88	8.17383
4.885	8.17383
4.89	8.17383
4.895	8.17383
4.9	8.17383
4.905	8.17383
4.91	8.17383
4.915	8.17383
4.92	8.17383
4.925	8.17383
4.93	8.17383
4.935	8.17383
4.94	8.17383
4.945	8.17383
4.95	8.17383
4.955	8.17383
4.96	8.17383
4.965	8.17383
4.97	8.17383
4.975	8.17383
4.98	8.17383
4.985	8.08594
4.99	8.08594
4.995	8.08594
5	8.08594
5.005	8.08594
5.01	8.08594
5.015	8.08594
5.02	8.08594
5.025	8.08594
5.03	8.08594
5.035	8.08594
5.04	8.08594
5.045	8.08594
5.05	8.08594
5.055	8.08594
5.06	8.08594
5.065	8.08594
5.07	8.08594
5.075	8.08594
5.08	8.08594
5.085	8.08594
5.09	8.08594
5.095	8.08594
5.1	8.08594
5.105	8.08594
5.11	8.08594
5.115	8.08594
5.12	8.08594
5.125	8.08594
5.13	8.08594
5.135	8.08594
5.14	8.08594
5.145	8.08594
5.15	8.08594
5.155	8.08594
5.16	8.08594
5.165	8.08594
5.17	7.99805
5.175	7.99805
5.18	7.99805
5.185	7.99805
5.19	7.99805
5.195	7.99805
5.2	7.99805
5.205	7.99805
5.21	7.99805
5.215	7.99805
5.22	7.91016
5.225	7.99805
5.23	7.91016
5.235	7.99805
5.24	7.82227
5.245	7.82227
5.25	7.91016
5.255	7.73437
5.26	7.73437
5.265	7.82227
5.27	7.73437
5.275	7.73437
5.28	7.73437
5.285	7.64648
5.29	7.73437
5.295	7.64648
5.3	7.64648
5.305	7.55859
5.31	7.55859
5.315	7.55859
5.32	7.55859
5.325	7.4707
5.33	7.4707
5.335	7.4707
5.34	7.4707
5.345	7.38281
5.35	7.38281
5.355	7.38281
5.36	7.38281
5.365	7.38281
5.37	7.38281
5.375	7.38281
5.38	7.38281
5.385	7.38281
5.39	7.38281
5.395	7.29492
5.4	7.29492
5.405	7.29492
5.41	7.29492
5.415	7.29492
5.42	7.29492
5.425	7.29492
5.43	7.20703
5.435	7.20703
5.44	7.29492
5.445	7.29492
5.45	7.29492
5.455	7.29492
5.46	7.29492
5.465	7.29492
5.47	7.29492
5.475	7.29492
5.48	7.29492
5.485	7.29492
5.49	7.29492
5.495	7.29492
5.5	7.29492
5.505	7.29492
5.51	7.29492
5.515	7.29492
5.52	7.29492
5.525	7.29492
5.53	7.29492
5.535	7.29492
5.54	7.20703
5.545	7.20703
5.55	7.20703
5.555	7.11914
5.56	7.11914
5.565	7.20703
5.57	7.11914
5.575	7.20703
5.58	7.20703
5.585	7.11914
5.59	7.11914
5.595	7.03125
5.6	7.03125
5.605	7.03125
5.61	6.94336
5.615	6.94336
5.62	6.85547
5.625	6.85547
5.63	6.94336
5.635	6.85547
5.64	6.85547
5.645	6.85547
5.65	6.67969
5.655	6.67969
5.66	6.67969
5.665	6.50391
5.67	6.50391
5.675	6.50391
5.68	6.41602
5.685	6.41602
5.69	6.41602
5.695	6.32812
5.7	6.32812
5.705	6.32812
5.71	6.24023
5.715	6.15234
5.72	6.24023
5.725	5.97656
5.73	5.97656
5.735	5.88867
5.74	5.88867
5.745	5.80078
5.75	5.80078
5.755	5.71289
5.76	5.71289
5.765	5.71289
5.77	5.625
5.775	5.625
5.78	5.53711
5.785	5.44922
5.79	5.44922
5.795	5.36133
5.8	5.27344
5.805	5.27344
5.81	5.27344
5.815	5.18555
5.82	5.18555
5.825	5.09766
5.83	5.09766
5.835	5.00977
5.84	5.00977
5.845	5.00977
5.85	5.00977
5.855	4.92188
5.86	4.92188
5.865	4.92188
5.87	4.83398
5.875	4.92188
5.88	4.92188
5.885	4.92188
5.89	4.92188
5.895	5.00977
5.9	5.00977
5.905	4.92188
5.91	4.92188
5.915	5.00977
5.92	5.00977
5.925	4.92188
5.93	4.92188
5.935	5.00977
5.94	4.92188
5.945	5.00977
5.95	5.00977
5.955	5.00977
5.96	5.09766
5.965	5.09766
5.97	5.18555
5.975	5.27344
5.98	5.27344
5.985	5.36133
5.99	5.36133
5.995	5.36133
6	5.44922
6.005	5.53711
6.01	5.53711
6.015	5.53711
6.02	5.625
6.025	5.71289
6.03	5.71289
6.035	5.80078
6.04	5.88867
6.045	5.97656
6.05	6.06445
6.055	6.06445
6.06	6.24023
6.065	6.24023
6.07	6.32812
6.075	6.41602
6.08	6.41602
6.085	6.50391
6.09	6.5918
6.095	6.5918
6.1	6.67969
6.105	6.76758
6.11	6.85547
6.115	7.11914
6.12	7.20703
6.125	7.29492
6.13	7.38281
6.135	7.4707
6.14	7.4707
6.145	7.64648
6.15	7.64648
6.155	7.73437
6.16	7.82227
6.165	7.91016
6.17	7.99805
6.175	8.08594
6.18	8.17383
6.185	8.17383
6.19	8.26172
6.195	8.34961
6.2	8.4375
6.205	8.52539
6.21	8.52539
6.215	8.70117
6.22	8.78906
6.225	8.78906
6.23	8.87695
6.235	8.87695
6.24	8.96484
6.245	8.96484
6.25	9.05273
6.255	9.05273
6.26	9.14063
6.265	9.14063
6.27	9.14063
6.275	9.22852
6.28	9.22852
6.285	9.22852
6.29	9.31641
6.295	9.31641
6.3	9.31641
6.305	9.4043
6.31	9.4043
6.315	9.4043
6.32	9.4043
6.325	9.4043
6.33	9.49219
6.335	9.49219
6.34	9.49219
6.345	9.49219
6.35	9.49219
6.355	9.49219
6.36	9.49219
6.365	9.49219
6.37	9.49219
6.375	9.49219
6.38	9.49219
6.385	9.49219
6.39	9.49219
6.395	9.58008
6.4	9.58008
6.405	9.49219
6.41	9.49219
6.415	9.49219
6.42	9.49219
6.425	9.49219
6.43	9.49219
6.435	9.49219
6.44	9.49219
6.445	9.49219
6.45	9.49219
6.455	9.49219
6.46	9.49219
6.465	9.49219
6.47	9.4043
6.475	9.4043
6.48	9.4043
6.485	9.4043
6.49	9.4043
6.495	9.4043
6.5	9.4043
6.505	9.4043
6.51	9.31641
6.515	9.31641
6.52	9.31641
6.525	9.31641
6.53	9.31641
6.535	9.31641
6.54	9.22852
6.545	9.22852
6.55	9.22852
6.555	9.22852
6.56	9.22852
6.565	9.22852
6.57	9.22852
6.575	9.22852
6.58	9.22852
6.585	9.14063
6.59	9.14063
6.595	9.14063
6.6	9.14063
6.605	9.14063
6.61	9.14063
6.615	9.14063
6.62	9.14063
6.625	9.14063
6.63	9.14063
6.635	9.14063
6.64	9.14063
6.645	9.14063
6.65	9.14063
6.655	9.14063
6.66	9.14063
6.665	9.14063
6.67	9.14063
6.675	9.14063
6.68	9.14063
6.685	9.14063
6.69	9.14063
6.695	9.14063
6.7	9.14063
6.705	9.14063
6.71	9.14063
6.715	9.14063
6.72	9.14063
6.725	9.14063
6.73	9.14063
6.735	9.14063
6.74	9.22852
6.745	9.22852
6.75	9.22852
6.755	9.22852
6.76	9.22852
6.765	9.22852
6.77	9.22852
6.775	9.31641
6.78	9.31641
6.785	9.31641
6.79	9.31641
6.795	9.31641
6.8	9.31641
6.805	9.31641
6.81	9.4043
6.815	9.4043
6.82	9.4043
6.825	9.4043
6.83	9.4043
6.835	9.4043
6.84	9.49219
6.845	9.49219
6.85	9.49219
6.855	9.49219
6.86	9.58008
6.865	9.58008
6.87	9.58008
6.875	9.58008
6.88	9.58008
6.885	9.58008
6.89	9.58008
6.895	9.58008
6.9	9.58008
6.905	9.58008
6.91	9.66797
6.915	9.66797
6.92	9.66797
6.925	9.66797
6.93	9.66797
6.935	9.66797
6.94	9.66797
6.945	9.66797
6.95	9.66797
6.955	9.66797
6.96	9.66797
6.965	9.66797
6.97	9.66797
6.975	9.66797
6.98	9.66797
6.985	9.66797
6.99	9.66797
6.995	9.66797
7	9.66797
7.005	9.66797
7.01	9.66797
7.015	9.66797
7.02	9.66797
7.025	9.66797
7.03	9.66797
7.035	9.66797
7.04	9.66797
7.045	9.66797
7.05	9.58008
7.055	9.58008
7.06	9.58008
7.065	9.58008
7.07	9.58008
7.075	9.58008
7.08	9.58008
7.085	9.58008
7.09	9.58008
7.095	9.58008
7.1	9.58008
7.105	9.58008
7.11	9.49219
7.115	9.49219
7.12	9.49219
7.125	9.49219
7.13	9.49219
7.135	9.49219
7.14	9.49219
7.145	9.4043
7.15	9.4043
7.155	9.4043
7.16	9.4043
7.165	9.4043
7.17	9.4043
7.175	9.4043
7.18	9.4043
7.185	9.31641
7.19	9.31641
7.195	9.31641
7.2	9.31641
7.205	9.31641
7.21	9.31641
7.215	9.31641
7.22	9.31641
7.225	9.22852
7.23	9.22852
7.235	9.22852
7.24	9.22852
7.245	9.22852
7.25	9.22852
7.255	9.22852
7.26	9.14063
7.265	9.22852
7.27	9.14063
7.275	9.14063
7.28	9.14063
7.285	9.14063
7.29	9.14063
7.295	9.14063
7.3	9.14063
7.305	9.14063
7.31	9.05273
7.315	9.05273
7.32	9.05273
7.325	9.05273
7.33	9.05273
7.335	9.05273
7.34	9.05273
7.345	9.05273
7.35	9.05273
7.355	9.05273
7.36	9.05273
7.365	9.05273
7.37	9.05273
7.375	8.96484
7.38	8.96484
7.385	8.96484
7.39	8.96484
7.395	8.96484
7.4	8.96484
7.405	8.96484
7.41	8.96484
7.415	8.96484
7.42	8.96484
7.425	8.96484
7.43	8.96484
7.435	8.96484
7.44	8.87695
7.445	8.87695
7.45	8.87695
7.455	8.87695
7.46	8.87695
7.465	8.87695
7.47	8.87695
7.475	8.87695
7.48	8.87695
7.485	8.87695
7.49	8.87695
7.495	8.87695
7.5	8.87695
7.505	8.87695
7.51	8.87695
7.515	8.87695
7.52	8.87695
7.525	8.87695
7.53	8.87695
7.535	8.87695
7.54	8.87695
7.545	8.87695
7.55	8.87695
7.555	8.78906
7.56	8.78906
7.565	8.78906
7.57	8.78906
7.575	8.78906
7.58	8.78906
7.585	8.78906
7.59	8.78906
7.595	8.78906
7.6	8.78906
7.605	8.78906
7.61	8.78906
7.615	8.70117
7.62	8.78906
7.625	8.78906
7.63	8.70117
7.635	8.70117
7.64	8.70117
7.645	8.70117
7.65	8.70117
7.655	8.70117
7.66	8.70117
7.665	8.70117
7.67	8.70117
7.675	8.70117
7.68	8.61328
7.685	8.61328
7.69	8.61328
7.695	8.61328
7.7	8.61328
7.705	8.61328
7.71	8.61328
7.715	8.61328
7.72	8.61328
7.725	8.52539
7.73	8.52539
7.735	8.52539
7.74	8.52539
7.745	8.52539
7.75	8.52539
7.755	8.52539
7.76	8.52539
7.765	8.52539
7.77	8.52539
7.775	8.52539
7.78	8.52539
7.785	8.4375
7.79	8.4375
7.795	8.4375
7.8	8.4375
7.805	8.4375
7.81	8.4375
7.815	8.4375
7.82	8.4375
7.825	8.4375
7.83	8.4375
7.835	8.34961
7.84	8.34961
7.845	8.34961
7.85	8.34961
7.855	8.34961
7.86	8.34961
7.865	8.34961
7.87	8.34961
7.875	8.34961
7.88	8.34961
7.885	8.34961
7.89	8.34961
7.895	8.34961
7.9	8.34961
7.905	8.34961
7.91	8.34961
7.915	8.34961
7.92	8.34961
7.925	8.34961
7.93	8.34961
7.935	8.34961
7.94	8.34961
7.945	8.34961
7.95	8.34961
7.955	8.34961
7.96	8.34961
7.965	8.34961
7.97	8.34961
7.975	8.34961
7.98	8.34961
7.985	8.34961
7.99	8.34961
7.995	8.34961
8	8.34961
8.005	8.34961
8.01	8.34961
8.015	8.34961
8.02	8.34961
8.025	8.34961
8.03	8.34961
8.035	8.34961
8.04	8.34961
8.045	8.34961
8.05	8.34961
8.055	8.34961
8.06	8.34961
8.065	8.34961
8.07	8.34961
8.075	8.34961
8.08	8.34961
8.085	8.34961
8.09	8.34961
8.095	8.34961
8.1	8.34961
8.105	8.34961
8.11	8.34961
8.115	8.34961
8.12	8.34961
8.125	8.34961
8.13	8.34961
8.135	8.34961
8.14	8.34961
8.145	8.34961
8.15	8.34961
8.155	8.34961
8.16	8.34961
8.165	8.34961
8.17	8.34961
8.175	8.34961
8.18	8.34961
8.185	8.34961
8.19	8.34961
8.195	8.34961
8.2	8.34961
8.205	8.34961
8.21	8.34961
8.215	8.34961
8.22	8.4375
8.225	8.4375
8.23	8.4375
8.235	8.4375
8.24	8.4375
8.245	8.4375
8.25	8.4375
8.255	8.4375
8.26	8.4375
8.265	8.4375
8.27	8.4375
8.275	8.4375
8.28	8.4375
8.285	8.4375
8.29	8.4375
8.295	8.4375
8.3	8.4375
8.305	8.4375
8.31	8.4375
8.315	8.4375
8.32	8.4375
8.325	8.4375
8.33	8.4375
8.335	8.4375
8.34	8.4375
8.345	8.4375
8.35	8.4375
8.355	8.4375
8.36	8.4375
8.365	8.4375
8.37	8.4375
8.375	8.34961
8.38	8.4375
8.385	8.4375
8.39	8.34961
8.395	8.4375
8.4	8.34961
8.405	8.34961
8.41	8.34961
8.415	8.34961
8.42	8.34961
8.425	8.34961
8.43	8.34961
8.435	8.34961
8.44	8.34961
8.445	8.34961
8.45	8.34961
8.455	8.34961
8.46	8.34961
8.465	8.34961
8.47	8.34961
8.475	8.34961
8.48	8.34961
8.485	8.34961
8.49	8.34961
8.495	8.34961
8.5	8.34961
8.505	8.34961
8.51	8.34961
8.515	8.34961
8.52	8.34961
8.525	8.34961
8.53	8.34961
8.535	8.34961
8.54	8.34961
8.545	8.34961
8.55	8.34961
8.555	8.34961
8.56	8.34961
8.565	8.34961
8.57	8.34961
8.575	8.34961
8.58	8.34961
8.585	8.34961
8.59	8.34961
8.595	8.34961
8.6	8.34961
8.605	8.34961
8.61	8.34961
8.615	8.34961
8.62	8.34961
8.625	8.34961
8.63	8.34961
8.635	8.34961
8.64	8.34961
8.645	8.34961
8.65	8.34961
8.655	8.34961
8.66	8.34961
8.665	8.34961
8.67	8.34961
8.675	8.34961
8.68	8.4375
8.685	8.34961
8.69	8.34961
8.695	8.34961
8.7	8.4375
8.705	8.4375
8.71	8.34961
8.715	8.4375
8.72	8.4375
8.725	8.4375
8.73	8.4375
8.735	8.4375
8.74	8.4375
8.745	8.4375
8.75	8.4375
8.755	8.4375
8.76	8.4375
8.765	8.4375
8.77	8.4375
8.775	8.4375
8.78	8.4375
8.785	8.4375
8.79	8.4375
8.795	8.4375
8.8	8.4375
8.805	8.4375
8.81	8.4375
8.815	8.4375
8.82	8.4375
8.825	8.4375
8.83	8.4375
8.835	8.4375
8.84	8.4375
8.845	8.4375
8.85	8.4375
8.855	8.4375
8.86	8.4375
8.865	8.4375
8.87	8.4375
8.875	8.4375
8.88	8.4375
8.885	8.4375
8.89	8.4375
8.895	8.4375
8.9	8.4375
8.905	8.4375
8.91	8.4375
8.915	8.4375
8.92	8.4375
8.925	8.4375
8.93	8.4375
8.935	8.4375
8.94	8.4375
8.945	8.4375
8.95	8.4375
8.955	8.4375
8.96	8.4375
8.965	8.4375
8.97	8.4375
8.975	8.4375
8.98	8.34961
8.985	8.34961
8.99	8.34961
8.995	8.34961
9	8.34961
9.005	8.34961
9.01	8.34961
9.015	8.34961
9.02	8.34961
9.025	8.34961
9.03	8.34961
9.035	8.34961
9.04	8.34961
9.045	8.34961
9.05	8.34961
9.055	8.34961
9.06	8.34961
9.065	8.34961
9.07	8.34961
9.075	8.34961
9.08	8.34961
9.085	8.34961
9.09	8.34961
9.095	8.34961
9.1	8.34961
9.105	8.34961
9.11	8.34961
9.115	8.34961
9.12	8.34961
9.125	8.34961
9.13	8.34961
9.135	8.34961
9.14	8.34961
9.145	8.34961
9.15	8.34961
9.155	8.34961
9.16	8.34961
9.165	8.34961
9.17	8.34961
9.175	8.34961
9.18	8.34961
9.185	8.34961
9.19	8.34961
9.195	8.34961
9.2	8.34961
9.205	8.34961
9.21	8.34961
9.215	8.34961
9.22	8.34961
9.225	8.34961
9.23	8.34961
9.235	8.34961
9.24	8.34961
9.245	8.34961
9.25	8.34961
9.255	8.34961
9.26	8.34961
9.265	8.34961
9.27	8.34961
9.275	8.34961
9.28	8.34961
9.285	8.4375
9.29	8.34961
9.295	8.4375
9.3	8.4375
9.305	8.4375
9.31	8.4375
9.315	8.4375
9.32	8.4375
9.325	8.4375
9.33	8.4375
9.335	8.4375
9.34	8.4375
9.345	8.4375
9.35	8.4375
9.355	8.4375
9.36	8.4375
9.365	8.4375
9.37	8.4375
9.375	8.4375
9.38	8.4375
9.385	8.4375
9.39	8.4375
9.395	8.4375
9.4	8.4375
9.405	8.4375
9.41	8.4375
9.415	8.4375
9.42	8.4375
9.425	8.4375
9.43	8.4375
9.435	8.4375
9.44	8.4375
9.445	8.4375
9.45	8.4375
9.455	8.4375
9.46	8.4375
9.465	8.4375
9.47	8.4375
9.475	8.4375
9.48	8.4375
9.485	8.4375
9.49	8.4375
9.495	8.4375
9.5	8.4375
9.505	8.4375
9.51	8.4375
9.515	8.4375
9.52	8.4375
9.525	8.52539
9.53	8.52539
9.535	8.4375
9.54	8.52539
9.545	8.52539
9.55	8.4375
9.555	8.52539
9.56	8.52539
9.565	8.4375
9.57	8.52539
9.575	8.52539
9.58	8.52539
9.585	8.52539
9.59	8.4375
9.595	8.52539
9.6	8.52539
9.605	8.52539
9.61	8.52539
9.615	8.52539
9.62	8.52539
9.625	8.52539
9.63	8.52539
9.635	8.52539
9.64	8.52539
9.645	8.52539
9.65	8.52539
9.655	8.52539
9.66	8.52539
9.665	8.52539
9.67	8.4375
9.675	8.52539
9.68	8.4375
9.685	8.52539
9.69	8.4375
9.695	8.4375
9.7	8.4375
9.705	8.4375
9.71	8.4375
9.715	8.4375
9.72	8.4375
9.725	8.4375
9.73	8.4375
9.735	8.4375
9.74	8.4375
9.745	8.4375
9.75	8.4375
9.755	8.4375
9.76	8.4375
9.765	8.4375
9.77	8.4375
9.775	8.4375
9.78	8.4375
9.785	8.4375
9.79	8.4375
9.795	8.4375
9.8	8.4375
9.805	8.4375
9.81	8.4375
9.815	8.4375
9.82	8.4375
9.825	8.4375
9.83	8.4375
9.835	8.4375
9.84	8.4375
9.845	8.4375
9.85	8.4375
9.855	8.4375
9.86	8.4375
9.865	8.34961
9.87	8.34961
9.875	8.34961
9.88	8.34961
9.885	8.34961
9.89	8.34961
9.895	8.34961
9.9	8.34961
9.905	8.34961
9.91	8.34961
9.915	8.34961
9.92	8.34961
9.925	8.34961
9.93	8.34961
9.935	8.34961
9.94	8.34961
9.945	8.34961
9.95	8.34961
9.955	8.34961
9.96	8.34961
9.965	8.34961
9.97	8.34961
9.975	8.34961
9.98	8.34961
9.985	8.4375
9.99	8.34961
9.995	8.4375
10	8.34961
10.005	8.34961
10.01	8.4375
10.015	8.4375
10.02	8.52539
10.025	8.4375
10.03	8.52539
10.035	8.52539
10.04	8.4375
10.045	8.52539
10.05	8.52539
10.055	8.4375
10.06	8.52539
10.065	8.52539
10.07	8.4375
10.075	8.4375
10.08	8.4375
10.085	8.4375
10.09	8.52539
10.095	8.52539
10.1	8.52539
10.105	8.52539
10.11	8.52539
10.115	8.52539
10.12	8.52539
10.125	8.52539
10.13	8.4375
10.135	8.4375
10.14	8.4375
10.145	8.4375
10.15	8.4375
10.155	8.4375
10.16	8.4375
10.165	8.4375
10.17	8.34961
10.175	8.34961
10.18	8.34961
10.185	8.34961
10.19	8.26172
10.195	8.26172
10.2	8.26172
10.205	8.17383
10.21	8.17383
10.215	8.08594
10.22	7.99805
10.225	7.99805
10.23	7.91016
10.235	7.91016
10.24	7.91016
10.245	7.82227
10.25	7.82227
10.255	7.73437
10.26	7.64648
10.265	7.64648
10.27	7.64648
10.275	7.4707
10.28	7.4707
10.285	7.29492
10.29	7.29492
10.295	7.20703
10.3	7.20703
10.305	7.11914
10.31	7.03125
10.315	7.03125
10.32	6.94336
10.325	6.85547
10.33	6.85547
10.335	6.76758
10.34	6.67969
10.345	6.5918
10.35	6.5918
10.355	6.5918
10.36	6.50391
10.365	6.50391
10.37	6.41602
10.375	6.41602
10.38	6.32812
10.385	6.32812
10.39	6.24023
10.395	6.24023
10.4	6.15234
10.405	6.15234
10.41	6.06445
10.415	6.06445
10.42	6.06445
10.425	6.06445
10.43	6.06445
10.435	5.97656
10.44	5.97656
10.445	5.97656
10.45	5.97656
10.455	5.97656
10.46	5.97656
10.465	5.97656
10.47	5.97656
10.475	5.97656
10.48	6.06445
10.485	5.97656
10.49	6.06445
10.495	6.06445
10.5	6.06445
10.505	6.15234
10.51	6.24023
10.515	6.24023
10.52	6.24023
10.525	6.32812
10.53	6.50391
10.535	6.50391
10.54	6.5918
10.545	6.67969
10.55	6.67969
10.555	6.94336
10.56	6.94336
10.565	7.03125
10.57	7.29492
10.575	7.29492
10.58	7.38281
10.585	7.55859
10.59	7.64648
10.595	7.73437
10.6	7.91016
10.605	7.99805
10.61	8.17383
10.615	8.17383
10.62	8.26172
10.625	8.4375
10.63	8.52539
10.635	8.61328
10.64	8.70117
10.645	8.70117
10.65	8.78906
10.655	8.87695
10.66	8.96484
10.665	8.96484
10.67	9.05273
10.675	9.14063
10.68	9.14063
10.685	9.22852
10.69	9.31641
10.695	9.4043
10.7	9.4043
10.705	9.4043
10.71	9.49219
10.715	9.49219
10.72	9.49219
10.725	9.58008
10.73	9.58008
10.735	9.66797
10.74	9.66797
10.745	9.66797
10.75	9.66797
10.755	9.66797
10.76	9.66797
10.765	9.66797
10.77	9.58008
10.775	9.66797
10.78	9.58008
10.785	9.58008
10.79	9.58008
10.795	9.58008
10.8	9.58008
10.805	9.49219
10.81	9.49219
10.815	9.49219
10.82	9.49219
10.825	9.4043
10.83	9.4043
10.835	9.4043
10.84	9.31641
10.845	9.31641
10.85	9.31641
10.855	9.22852
10.86	9.22852
10.865	9.14063
10.87	9.14063
10.875	9.05273
10.88	9.05273
10.885	9.05273
10.89	8.96484
10.895	8.87695
10.9	8.87695
10.905	8.78906
10.91	8.70117
10.915	8.70117
10.92	8.61328
10.925	8.61328
10.93	8.52539
10.935	8.52539
10.94	8.52539
10.945	8.4375
10.95	8.4375
10.955	8.34961
10.96	8.26172
10.965	8.26172
10.97	8.26172
10.975	8.17383
10.98	8.17383
10.985	8.17383
10.99	8.08594
10.995	8.08594
11	8.08594
11.005	7.99805
11.01	7.99805
11.015	7.99805
11.02	8.08594
11.025	7.99805
11.03	7.99805
11.035	7.99805
11.04	7.99805
11.045	7.99805
11.05	7.91016
11.055	7.91016
11.06	7.91016
11.065	7.82227
11.07	7.82227
11.075	7.82227
11.08	7.82227
11.085	7.82227
11.09	7.82227
11.095	7.82227
11.1	7.82227
11.105	7.91016
11.11	7.91016
11.115	7.82227
11.12	7.82227
11.125	7.91016
11.13	7.82227
11.135	7.82227
11.14	7.82227
11.145	7.82227
11.15	7.82227
11.155	7.82227
11.16	7.82227
11.165	7.82227
11.17	7.82227
11.175	7.91016
11.18	7.91016
11.185	7.91016
11.19	7.91016
11.195	7.91016
11.2	7.91016
11.205	7.91016
11.21	7.91016
11.215	7.91016
11.22	7.91016
11.225	7.91016
11.23	7.91016
11.235	7.91016
11.24	7.91016
11.245	7.91016
11.25	7.91016
11.255	7.99805
11.26	7.99805
11.265	7.99805
11.27	7.99805
11.275	8.08594
11.28	8.08594
11.285	7.99805
11.29	8.08594
11.295	8.08594
11.3	7.99805
11.305	8.08594
11.31	8.08594
11.315	8.08594
11.32	8.08594
11.325	8.08594
11.33	8.08594
11.335	8.08594
11.34	8.08594
11.345	8.08594
11.35	8.17383
11.355	8.17383
11.36	8.17383
11.365	8.17383
11.37	8.17383
11.375	8.17383
11.38	8.17383
11.385	8.17383
11.39	8.08594
11.395	8.08594
11.4	8.17383
11.405	8.17383
11.41	8.17383
11.415	8.17383
11.42	8.17383
11.425	8.17383
11.43	8.17383
11.435	8.17383
11.44	8.17383
11.445	8.17383
11.45	8.17383
11.455	8.17383
11.46	8.17383
11.465	8.08594
11.47	8.08594
11.475	8.08594
11.48	8.08594
11.485	8.08594
11.49	8.08594
11.495	8.17383
11.5	8.17383
11.505	8.17383
11.51	8.17383
11.515	8.17383
11.52	8.17383
11.525	8.08594
11.53	8.08594
11.535	8.08594
11.54	8.08594
11.545	8.08594
11.55	7.99805
11.555	7.99805
11.56	7.99805
11.565	7.99805
11.57	7.99805
11.575	7.99805
11.58	8.08594
11.585	8.08594
11.59	8.08594
11.595	8.08594
11.6	7.99805
11.605	7.99805
11.61	7.99805
11.615	7.99805
11.62	7.99805
11.625	7.99805
11.63	7.99805
11.635	7.91016
11.64	7.91016
11.645	7.91016
11.65	7.99805
11.655	7.99805
11.66	7.99805
11.665	7.99805
11.67	7.91016
11.675	7.99805
11.68	7.91016
11.685	7.91016
11.69	7.91016
11.695	7.91016
11.7	7.91016
11.705	7.82227
11.71	7.82227
11.715	7.82227
11.72	7.82227
11.725	7.82227
11.73	7.91016
11.735	7.91016
11.74	7.91016
11.745	7.82227
11.75	7.91016
11.755	7.82227
11.76	7.82227
11.765	7.82227
11.77	7.82227
11.775	7.82227
11.78	7.73437
11.785	7.73437
11.79	7.73437
11.795	7.73437
11.8	7.73437
11.805	7.73437
11.81	7.73437
11.815	7.73437
11.82	7.73437
11.825	7.73437
11.83	7.73437
11.835	7.73437
11.84	7.64648
11.845	7.73437
11.85	7.64648
11.855	7.64648
11.86	7.64648
11.865	7.64648
11.87	7.64648
11.875	7.64648
11.88	7.64648
11.885	7.64648
11.89	7.64648
11.895	7.55859
11.9	7.64648
11.905	7.64648
11.91	7.64648
11.915	7.64648
11.92	7.55859
11.925	7.55859
11.93	7.55859
11.935	7.4707
11.94	7.4707
11.945	7.4707
11.95	7.4707
11.955	7.4707
11.96	7.4707
11.965	7.4707
11.97	7.4707
11.975	7.4707
11.98	7.4707
11.985	7.4707
11.99	7.4707
11.995	7.4707
12	7.4707
12.005	7.4707
12.01	7.4707
12.015	7.4707
12.02	7.4707
12.025	7.38281
12.03	7.38281
12.035	7.38281
12.04	7.38281
12.045	7.38281
12.05	7.38281
12.055	7.38281
12.06	7.38281
12.065	7.38281
12.07	7.38281
12.075	7.38281
12.08	7.38281
12.085	7.38281
12.09	7.38281
12.095	7.38281
12.1	7.38281
12.105	7.38281
12.11	7.29492
12.115	7.29492
12.12	7.29492
12.125	7.29492
12.13	7.29492
12.135	7.29492
12.14	7.29492
12.145	7.29492
12.15	7.29492
12.155	7.29492
12.16	7.29492
12.165	7.29492
12.17	7.29492
12.175	7.29492
12.18	7.29492
12.185	7.29492
12.19	7.29492
12.195	7.29492
12.2	7.29492
12.205	7.29492
12.21	7.29492
12.215	7.29492
12.22	7.29492
12.225	7.29492
12.23	7.29492
12.235	7.20703
12.24	7.20703
12.245	7.20703
12.25	7.20703
12.255	7.20703
12.26	7.20703
12.265	7.20703
12.27	7.20703
12.275	7.20703
12.28	7.29492
12.285	7.20703
12.29	7.20703
12.295	7.20703
12.3	7.20703
12.305	7.20703
12.31	7.20703
12.315	7.20703
12.32	7.20703
12.325	7.20703
12.33	7.20703
12.335	7.20703
12.34	7.20703
12.345	7.20703
12.35	7.20703
12.355	7.20703
12.36	7.20703
12.365	7.20703
12.37	7.20703
12.375	7.20703
12.38	7.20703
12.385	7.20703
12.39	7.20703
12.395	7.20703
12.4	7.20703
12.405	7.20703
12.41	7.20703
12.415	7.20703
12.42	7.20703
12.425	7.20703
12.43	7.20703
12.435	7.20703
12.44	7.20703
12.445	7.20703
12.45	7.20703
12.455	7.20703
12.46	7.20703
12.465	7.20703
12.47	7.20703
12.475	7.20703
12.48	7.20703
12.485	7.20703
12.49	7.20703
12.495	7.20703
12.5	7.20703
12.505	7.29492
12.51	7.20703
12.515	7.29492
12.52	7.29492
12.525	7.20703
12.53	7.29492
12.535	7.29492
12.54	7.20703
12.545	7.20703
12.55	7.29492
12.555	7.29492
12.56	7.29492
12.565	7.29492
12.57	7.29492
12.575	7.29492
12.58	7.29492
12.585	7.29492
12.59	7.29492
12.595	7.29492
12.6	7.29492
12.605	7.29492
12.61	7.29492
12.615	7.29492
12.62	7.29492
12.625	7.29492
12.63	7.29492
12.635	7.29492
12.64	7.29492
12.645	7.29492
12.65	7.29492
12.655	7.29492
12.66	7.29492
12.665	7.29492
12.67	7.29492
12.675	7.29492
12.68	7.29492
12.685	7.29492
12.69	7.29492
12.695	7.29492
12.7	7.29492
12.705	7.29492
12.71	7.29492
12.715	7.29492
12.72	7.29492
12.725	7.29492
12.73	7.29492
12.735	7.29492
12.74	7.29492
12.745	7.29492
12.75	7.29492
12.755	7.29492
12.76	7.29492
12.765	7.29492
12.77	7.29492
12.775	7.29492
12.78	7.29492
12.785	7.29492
12.79	7.29492
12.795	7.29492
12.8	7.29492
12.805	7.29492
12.81	7.29492
12.815	7.29492
12.82	7.29492
12.825	7.29492
12.83	7.29492
12.835	7.29492
12.84	7.29492
12.845	7.29492
12.85	7.29492
12.855	7.29492
12.86	7.29492
12.865	7.29492
12.87	7.29492
12.875	7.29492
12.88	7.29492
12.885	7.29492
12.89	7.29492
12.895	7.29492
12.9	7.29492
12.905	7.29492
12.91	7.29492
12.915	7.29492
12.92	7.29492
12.925	7.29492
12.93	7.29492
12.935	7.29492
12.94	7.38281
12.945	7.29492
12.95	7.29492
12.955	7.38281
12.96	7.38281
12.965	7.38281
12.97	7.38281
12.975	7.38281
12.98	7.29492
12.985	7.29492
12.99	7.29492
12.995	7.29492
13	7.29492
13.005	7.29492
13.01	7.29492
13.015	7.29492
13.02	7.29492
13.025	7.29492
13.03	7.29492
13.035	7.29492
13.04	7.29492
13.045	7.29492
13.05	7.38281
13.055	7.38281
13.06	7.38281
13.065	7.38281
13.07	7.38281
13.075	7.38281
13.08	7.38281
13.085	7.38281
13.09	7.38281
13.095	7.38281
13.1	7.38281
13.105	7.38281
13.11	7.38281
13.115	7.38281
13.12	7.38281
13.125	7.38281
13.13	7.38281
13.135	7.38281
13.14	7.38281
13.145	7.38281
13.15	7.38281
13.155	7.38281
13.16	7.38281
13.165	7.38281
13.17	7.38281
13.175	7.38281
13.18	7.38281
13.185	7.38281
13.19	7.38281
13.195	7.38281
13.2	7.38281
13.205	7.38281
13.21	7.38281
13.215	7.38281
13.22	7.38281
13.225	7.38281
13.23	7.38281
13.235	7.38281
13.24	7.38281
13.245	7.38281
13.25	7.38281
13.255	7.38281
13.26	7.38281
13.265	7.38281
13.27	7.38281
13.275	7.38281
13.28	7.38281
13.285	7.38281
13.29	7.38281
13.295	7.38281
13.3	7.38281
13.305	7.38281
13.31	7.38281
13.315	7.38281
13.32	7.38281
13.325	7.38281
13.33	7.38281
13.335	7.38281
13.34	7.38281
13.345	7.38281
13.35	7.38281
13.355	7.38281
13.36	7.38281
13.365	7.38281
13.37	7.38281
13.375	7.38281
13.38	7.38281
13.385	7.38281
13.39	7.38281
13.395	7.38281
13.4	7.38281
13.405	7.38281
13.41	7.38281
13.415	7.38281
13.42	7.38281
13.425	7.38281
13.43	7.38281
13.435	7.38281
13.44	7.4707
13.445	7.4707
13.45	7.4707
13.455	7.4707
13.46	7.4707
13.465	7.4707
13.47	7.4707
13.475	7.4707
13.48	7.4707
13.485	7.4707
13.49	7.4707
13.495	7.4707
13.5	7.4707
13.505	7.4707
13.51	7.4707
13.515	7.4707
13.52	7.4707
13.525	7.4707
13.53	7.4707
13.535	7.38281
13.54	7.4707
13.545	7.4707
13.55	7.38281
13.555	7.38281
13.56	7.4707
13.565	7.38281
13.57	7.4707
13.575	7.38281
13.58	7.4707
13.585	7.4707
13.59	7.4707
13.595	7.4707
13.6	7.4707
13.605	7.4707
13.61	7.4707
13.615	7.4707
13.62	7.38281
13.625	7.4707
13.63	7.4707
13.635	7.38281
13.64	7.38281
13.645	7.38281
13.65	7.38281
13.655	7.38281
13.66	7.38281
13.665	7.4707
13.67	7.4707
13.675	7.4707
13.68	7.4707
13.685	7.4707
13.69	7.4707
13.695	7.4707
13.7	7.4707
13.705	7.4707
13.71	7.4707
13.715	7.4707
13.72	7.4707
13.725	7.4707
13.73	7.4707
13.735	7.4707
13.74	7.4707
13.745	7.4707
13.75	7.4707
13.755	7.4707
13.76	7.4707
13.765	7.4707
13.77	7.4707
13.775	7.4707
13.78	7.4707
13.785	7.55859
13.79	7.55859
13.795	7.55859
13.8	7.55859
13.805	7.55859
13.81	7.55859
13.815	7.55859
13.82	7.55859
13.825	7.55859
13.83	7.55859
13.835	7.55859
13.84	7.55859
13.845	7.55859
13.85	7.55859
13.855	7.55859
13.86	7.55859
13.865	7.55859
13.87	7.55859
13.875	7.55859
13.88	7.55859
13.885	7.55859
13.89	7.55859
13.895	7.55859
13.9	7.55859
13.905	7.55859
13.91	7.55859
13.915	7.55859
13.92	7.55859
13.925	7.55859
13.93	7.55859
13.935	7.55859
13.94	7.55859
13.945	7.55859
13.95	7.55859
13.955	7.55859
13.96	7.55859
13.965	7.55859
13.97	7.55859
13.975	7.55859
13.98	7.64648
13.985	7.64648
13.99	7.64648
13.995	7.64648
14	7.64648
14.005	7.64648
14.01	7.64648
14.015	7.64648
14.02	7.64648
14.025	7.64648
14.03	7.64648
14.035	7.64648
14.04	7.64648
14.045	7.64648
14.05	7.64648
14.055	7.64648
14.06	7.64648
14.065	7.64648
14.07	7.64648
14.075	7.64648
14.08	7.64648
14.085	7.64648
14.09	7.64648
14.095	7.64648
14.1	7.64648
14.105	7.64648
14.11	7.64648
14.115	7.64648
14.12	7.64648
14.125	7.64648
14.13	7.73437
14.135	7.73437
14.14	7.64648
14.145	7.64648
14.15	7.64648
14.155	7.64648
14.16	7.73437
14.165	7.73437
14.17	7.73437
14.175	7.73437
14.18	7.73437
14.185	7.73437
14.19	7.73437
14.195	7.73437
14.2	7.73437
14.205	7.73437
14.21	7.73437
14.215	7.73437
14.22	7.73437
14.225	7.82227
14.23	7.82227
14.235	7.73437
14.24	7.73437
14.245	7.73437
14.25	7.73437
14.255	7.73437
14.26	7.82227
14.265	7.82227
14.27	7.82227
14.275	7.82227
14.28	7.82227
14.285	7.82227
14.29	7.82227
14.295	7.82227
14.3	7.82227
14.305	7.82227
14.31	7.82227
14.315	7.82227
14.32	7.82227
14.325	7.82227
14.33	7.82227
14.335	7.82227
14.34	7.82227
14.345	7.82227
14.35	7.82227
14.355	7.82227
14.36	7.91016
14.365	7.91016
14.37	7.91016
14.375	7.91016
14.38	7.91016
14.385	7.91016
14.39	7.91016
14.395	7.91016
14.4	7.91016
14.405	7.91016
14.41	7.91016
14.415	7.91016
14.42	7.91016
14.425	7.91016
14.43	7.91016
14.435	7.91016
14.44	7.91016
14.445	7.91016
14.45	7.91016
14.455	7.99805
14.46	7.91016
14.465	7.99805
14.47	7.99805
14.475	7.99805
14.48	7.99805
14.485	7.99805
14.49	7.99805
14.495	7.99805
14.5	7.99805
14.505	7.99805
14.51	7.99805
14.515	7.99805
14.52	7.99805
14.525	7.99805
14.53	7.99805
14.535	7.99805
14.54	7.99805
14.545	7.99805
14.55	7.99805
14.555	7.99805
14.56	7.99805
14.565	7.99805
14.57	7.99805
14.575	7.99805
14.58	7.99805
14.585	7.99805
14.59	7.99805
14.595	7.99805
14.6	8.08594
14.605	8.08594
14.61	8.08594
14.615	8.08594
14.62	8.08594
14.625	8.08594
14.63	7.99805
14.635	7.99805
14.64	7.99805
14.645	7.99805
14.65	7.99805
14.655	7.99805
14.66	7.99805
14.665	7.99805
14.67	7.99805
14.675	7.99805
14.68	7.99805
14.685	7.99805
14.69	8.08594
14.695	8.08594
14.7	8.08594
14.705	8.08594
14.71	8.08594
14.715	8.08594
14.72	8.08594
14.725	8.08594
14.73	8.08594
14.735	8.08594
14.74	8.08594
14.745	8.08594
14.75	8.08594
14.755	8.08594
14.76	8.08594
14.765	8.08594
14.77	8.08594
14.775	8.08594
14.78	8.08594
14.785	8.08594
14.79	8.08594
14.795	8.08594
14.8	8.08594
14.805	8.08594
14.81	8.08594
14.815	8.08594
14.82	8.08594
14.825	8.08594
14.83	7.99805
14.835	7.99805
14.84	7.99805
14.845	7.99805
14.85	7.99805
14.855	7.99805
14.86	8.08594
14.865	8.08594
14.87	8.08594
14.875	7.99805
14.88	8.08594
14.885	8.08594
14.89	7.99805
14.895	7.99805
14.9	7.99805
14.905	7.99805
14.91	7.99805
14.915	7.99805
14.92	7.99805
14.925	7.99805
14.93	7.99805
14.935	7.99805
14.94	7.99805
14.945	7.99805
14.95	7.99805
14.955	7.99805
14.96	7.99805
14.965	7.99805
14.97	7.99805
14.975	7.99805
14.98	7.99805
14.985	7.99805
14.99	7.99805
14.995	7.99805
15	7.99805
15.005	7.91016
15.01	7.91016
15.015	7.91016
15.02	7.91016
15.025	7.91016
15.03	7.91016
15.035	7.91016
15.04	7.91016
15.045	7.91016
15.05	7.91016
15.055	7.91016
15.06	7.91016
15.065	7.91016
15.07	7.91016
15.075	7.91016
15.08	7.91016
15.085	7.91016
15.09	7.91016
15.095	7.91016
15.1	7.82227
15.105	7.82227
15.11	7.82227
15.115	7.82227
15.12	7.82227
15.125	7.82227
15.13	7.82227
15.135	7.82227
15.14	7.82227
15.145	7.82227
15.15	7.82227
15.155	7.82227
15.16	7.82227
15.165	7.73437
15.17	7.73437
15.175	7.73437
15.18	7.73437
15.185	7.64648
15.19	7.64648
15.195	7.64648
15.2	7.64648
15.205	7.64648
15.21	7.55859
15.215	7.55859
15.22	7.4707
15.225	7.4707
15.23	7.38281
15.235	7.29492
15.24	7.29492
15.245	7.20703
15.25	7.11914
15.255	7.20703
15.26	7.11914
15.265	7.03125
15.27	7.11914
15.275	6.94336
15.28	6.94336
15.285	6.85547
15.29	6.85547
15.295	6.76758
15.3	6.85547
15.305	6.76758
15.31	6.76758
15.315	6.76758
15.32	6.76758
15.325	6.76758
15.33	6.76758
15.335	6.76758
15.34	6.76758
15.345	6.76758
15.35	6.67969
15.355	6.67969
15.36	6.67969
15.365	6.67969
15.37	6.67969
15.375	6.67969
15.38	6.67969
15.385	6.67969
15.39	6.76758
15.395	6.76758
15.4	6.76758
15.405	6.76758
15.41	6.76758
15.415	6.85547
15.42	6.85547
15.425	6.85547
15.43	6.85547
15.435	6.85547
15.44	6.85547
15.445	6.85547
15.45	6.94336
15.455	6.94336
15.46	6.94336
15.465	6.94336
15.47	6.94336
15.475	7.03125
15.48	7.03125
15.485	7.03125
15.49	7.03125
15.495	7.03125
15.5	7.11914
15.505	7.03125
15.51	7.03125
15.515	7.03125
15.52	7.03125
15.525	7.03125
15.53	7.11914
15.535	7.11914
15.54	7.11914
15.545	7.11914
15.55	7.11914
15.555	7.11914
15.56	7.11914
15.565	7.11914
15.57	7.11914
15.575	7.11914
15.58	7.11914
15.585	7.03125
15.59	7.03125
15.595	7.03125
15.6	7.03125
15.605	6.94336
15.61	6.94336
15.615	6.94336
15.62	6.94336
15.625	6.94336
15.63	6.94336
15.635	6.94336
15.64	6.85547
15.645	6.85547
15.65	6.85547
15.655	6.76758
15.66	6.76758
15.665	6.67969
15.67	6.67969
15.675	6.5918
15.68	6.5918
15.685	6.5918
15.69	6.5918
15.695	6.50391
15.7	6.41602
15.705	6.41602
15.71	6.32812
15.715	6.32812
15.72	6.24023
15.725	6.24023
15.73	6.15234
15.735	6.15234
15.74	6.06445
15.745	6.06445
15.75	6.06445
15.755	5.97656
15.76	5.97656
15.765	5.88867
15.77	5.88867
15.775	5.88867
15.78	5.80078
15.785	5.80078
15.79	5.80078
15.795	5.71289
15.8	5.71289
15.805	5.71289
15.81	5.625
15.815	5.625
15.82	5.625
15.825	5.53711
15.83	5.53711
15.835	5.53711
15.84	5.53711
15.845	5.44922
15.85	5.44922
15.855	5.44922
15.86	5.44922
15.865	5.44922
15.87	5.44922
15.875	5.44922
15.88	5.44922
15.885	5.44922
15.89	5.44922
15.895	5.44922
15.9	5.44922
15.905	5.44922
15.91	5.44922
15.915	5.44922
15.92	5.44922
15.925	5.44922
15.93	5.44922
15.935	5.44922
15.94	5.53711
15.945	5.53711
15.95	5.53711
15.955	5.53711
15.96	5.53711
15.965	5.625
15.97	5.71289
15.975	5.71289
15.98	5.71289
15.985	5.80078
15.99	5.80078
15.995	5.88867
16	5.88867
16.005	5.97656
16.01	6.06445
16.015	6.15234
16.02	6.24023
16.025	6.24023
16.03	6.32812
16.035	6.41602
16.04	6.41602
16.045	6.50391
16.05	6.50391
16.055	6.5918
16.06	6.76758
16.065	6.76758
16.07	6.85547
16.075	6.94336
16.08	7.03125
16.085	7.03125
16.09	7.11914
16.095	7.20703
16.1	7.29492
16.105	7.29492
16.11	7.4707
16.115	7.4707
16.12	7.55859
16.125	7.64648
16.13	7.64648
16.135	7.82227
16.14	7.82227
16.145	7.91016
16.15	7.99805
16.155	7.99805
16.16	7.99805
16.165	8.17383
16.17	8.17383
16.175	8.17383
16.18	8.26172
16.185	8.26172
16.19	8.34961
16.195	8.34961
16.2	8.4375
16.205	8.52539
16.21	8.52539
16.215	8.52539
16.22	8.61328
16.225	8.61328
16.23	8.70117
16.235	8.70117
16.24	8.70117
16.245	8.70117
16.25	8.70117
16.255	8.78906
16.26	8.78906
16.265	8.78906
16.27	8.78906
16.275	8.87695
16.28	8.87695
16.285	8.78906
16.29	8.87695
16.295	8.87695
16.3	8.87695
16.305	8.87695
16.31	8.87695
16.315	8.87695
16.32	8.87695
16.325	8.87695
16.33	8.87695
16.335	8.87695
16.34	8.87695
16.345	8.87695
16.35	8.87695
16.355	8.87695
16.36	8.87695
16.365	8.87695
16.37	8.87695
16.375	8.87695
16.38	8.87695
16.385	8.87695
16.39	8.87695
16.395	8.87695
16.4	8.87695
16.405	8.87695
16.41	8.87695
16.415	8.87695
16.42	8.87695
16.425	8.87695
16.43	8.87695
16.435	8.87695
16.44	8.87695
16.445	8.87695
16.45	8.87695
16.455	8.87695
16.46	8.87695
16.465	8.96484
16.47	8.96484
16.475	8.96484
16.48	8.96484
16.485	8.87695
16.49	8.96484
16.495	8.96484
16.5	8.96484
16.505	8.96484
16.51	8.96484
16.515	8.96484
16.52	8.96484
16.525	8.96484
16.53	8.96484
16.535	8.96484
16.54	8.96484
16.545	8.96484
16.55	8.96484
16.555	8.96484
16.56	8.96484
16.565	8.96484
16.57	8.96484
16.575	9.05273
16.58	8.96484
16.585	9.05273
16.59	9.05273
16.595	9.05273
16.6	9.05273
16.605	9.05273
16.61	9.05273
16.615	9.05273
16.62	9.05273
16.625	9.05273
16.63	9.05273
16.635	9.05273
16.64	9.05273
16.645	9.05273
16.65	9.05273
16.655	9.05273
16.66	9.05273
16.665	9.05273
16.67	9.05273
16.675	9.05273
16.68	9.05273
16.685	9.14063
16.69	9.14063
16.695	9.14063
16.7	9.14063
16.705	9.14063
16.71	9.14063
16.715	9.14063
16.72	9.14063
16.725	9.14063
16.73	9.14063
16.735	9.22852
16.74	9.14063
16.745	9.22852
16.75	9.22852
16.755	9.22852
16.76	9.22852
16.765	9.22852
16.77	9.22852
16.775	9.22852
16.78	9.22852
16.785	9.22852
16.79	9.22852
16.795	9.22852
16.8	9.22852
16.805	9.22852
16.81	9.22852
16.815	9.22852
16.82	9.22852
16.825	9.22852
16.83	9.22852
16.835	9.22852
16.84	9.22852
16.845	9.22852
16.85	9.22852
16.855	9.22852
16.86	9.22852
16.865	9.22852
16.87	9.22852
16.875	9.22852
16.88	9.22852
16.885	9.22852
16.89	9.22852
16.895	9.14063
16.9	9.14063
16.905	9.14063
16.91	9.14063
16.915	9.14063
16.92	9.14063
16.925	9.14063
16.93	9.14063
16.935	9.14063
16.94	9.05273
16.945	9.05273
16.95	9.05273
16.955	9.05273
16.96	9.05273
16.965	9.05273
16.97	9.05273
16.975	9.05273
16.98	9.05273
16.985	9.05273
16.99	8.96484
16.995	8.96484
17	8.96484
17.005	8.96484
17.01	8.96484
17.015	8.96484
17.02	8.96484
17.025	8.87695
17.03	8.87695
17.035	8.87695
17.04	8.87695
17.045	8.87695
17.05	8.87695
17.055	8.87695
17.06	8.87695
17.065	8.87695
17.07	8.87695
17.075	8.78906
17.08	8.78906
17.085	8.78906
17.09	8.78906
17.095	8.78906
17.1	8.78906
17.105	8.70117
17.11	8.70117
17.115	8.70117
17.12	8.70117
17.125	8.70117
17.13	8.70117
17.135	8.70117
17.14	8.70117
17.145	8.61328
17.15	8.70117
17.155	8.61328
17.16	8.61328
17.165	8.61328
17.17	8.61328
17.175	8.61328
17.18	8.52539
17.185	8.52539
17.19	8.52539
17.195	8.52539
17.2	8.52539
17.205	8.52539
17.21	8.52539
17.215	8.52539
17.22	8.52539
17.225	8.4375
17.23	8.4375
17.235	8.4375
17.24	8.4375
17.245	8.4375
17.25	8.4375
17.255	8.4375
17.26	8.4375
17.265	8.4375
17.27	8.4375
17.275	8.4375
17.28	8.34961
17.285	8.34961
17.29	8.34961
17.295	8.34961
17.3	8.34961
17.305	8.34961
17.31	8.34961
17.315	8.34961
17.32	8.34961
17.325	8.34961
17.33	8.34961
17.335	8.34961
17.34	8.34961
17.345	8.34961
17.35	8.34961
17.355	8.34961
17.36	8.34961
17.365	8.34961
17.37	8.34961
17.375	8.34961
17.38	8.34961
17.385	8.34961
17.39	8.34961
17.395	8.26172
17.4	8.26172
17.405	8.34961
17.41	8.26172
17.415	8.26172
17.42	8.34961
17.425	8.26172
17.43	8.34961
17.435	8.26172
17.44	8.34961
17.445	8.26172
17.45	8.26172
17.455	8.34961
17.46	8.26172
17.465	8.26172
17.47	8.26172
17.475	8.26172
17.48	8.26172
17.485	8.26172
17.49	8.26172
17.495	8.26172
17.5	8.26172
17.505	8.26172
17.51	8.26172
17.515	8.26172
17.52	8.26172
17.525	8.26172
17.53	8.26172
17.535	8.26172
17.54	8.26172
17.545	8.26172
17.55	8.26172
17.555	8.26172
17.56	8.26172
17.565	8.26172
17.57	8.26172
17.575	8.26172
17.58	8.26172
17.585	8.26172
17.59	8.26172
17.595	8.26172
17.6	8.26172
17.605	8.26172
17.61	8.26172
17.615	8.26172
17.62	8.26172
17.625	8.26172
17.63	8.26172
17.635	8.17383
17.64	8.17383
17.645	8.17383
17.65	8.17383
17.655	8.17383
17.66	8.17383
17.665	8.17383
17.67	8.17383
17.675	8.17383
17.68	8.17383
17.685	8.17383
17.69	8.17383
17.695	8.17383
17.7	8.17383
17.705	8.17383
17.71	8.17383
17.715	8.08594
17.72	8.08594
17.725	8.08594
17.73	8.08594
17.735	8.08594
17.74	8.08594
17.745	8.08594
17.75	8.08594
17.755	8.08594
17.76	8.08594
17.765	8.08594
17.77	8.08594
17.775	8.08594
17.78	8.08594
17.785	8.08594
17.79	7.99805
17.795	7.99805
17.8	7.99805
17.805	7.99805
17.81	7.99805
17.815	7.99805
17.82	7.99805
17.825	7.99805
17.83	7.99805
17.835	7.99805
17.84	7.99805
17.845	7.99805
17.85	7.99805
17.855	7.99805
17.86	7.99805
17.865	7.99805
17.87	7.91016
17.875	7.91016
17.88	7.91016
17.885	7.91016
17.89	7.91016
17.895	7.91016
17.9	7.91016
17.905	7.91016
17.91	7.91016
17.915	7.91016
17.92	7.91016
17.925	7.91016
17.93	7.91016
17.935	7.91016
17.94	7.91016
17.945	7.91016
17.95	7.91016
17.955	7.91016
17.96	7.91016
17.965	7.91016
17.97	7.91016
17.975	7.91016
17.98	7.91016
17.985	7.91016
17.99	7.91016
17.995	7.82227
18	7.91016
18.005	7.82227
18.01	7.82227
18.015	7.82227
18.02	7.82227
18.025	7.82227
18.03	7.82227
18.035	7.82227
18.04	7.82227
18.045	7.82227
18.05	7.82227
18.055	7.82227
18.06	7.82227
18.065	7.82227
18.07	7.82227
18.075	7.82227
18.08	7.82227
18.085	7.82227
18.09	7.82227
18.095	7.82227
18.1	7.82227
18.105	7.82227
18.11	7.82227
18.115	7.82227
18.12	7.82227
18.125	7.82227
18.13	7.82227
18.135	7.82227
18.14	7.73437
18.145	7.82227
18.15	7.82227
18.155	7.73437
18.16	7.82227
18.165	7.73437
18.17	7.82227
18.175	7.73437
18.18	7.82227
18.185	7.73437
18.19	7.82227
18.195	7.82227
18.2	7.73437
18.205	7.73437
18.21	7.73437
18.215	7.73437
18.22	7.73437
18.225	7.73437
18.23	7.73437
18.235	7.73437
18.24	7.73437
18.245	7.73437
18.25	7.73437
18.255	7.73437
18.26	7.73437
18.265	7.73437
18.27	7.73437
18.275	7.73437
18.28	7.73437
18.285	7.73437
18.29	7.73437
18.295	7.73437
18.3	7.73437
18.305	7.73437
18.31	7.73437
18.315	7.73437
18.32	7.73437
18.325	7.73437
18.33	7.73437
18.335	7.73437
18.34	7.73437
18.345	7.73437
18.35	7.73437
18.355	7.73437
18.36	7.73437
18.365	7.73437
18.37	7.73437
18.375	7.73437
18.38	7.73437
18.385	7.73437
18.39	7.73437
18.395	7.73437
18.4	7.73437
18.405	7.73437
18.41	7.73437
18.415	7.73437
18.42	7.73437
18.425	7.73437
18.43	7.73437
18.435	7.73437
18.44	7.73437
18.445	7.73437
18.45	7.82227
18.455	7.82227
18.46	7.82227
18.465	7.82227
18.47	7.73437
18.475	7.82227
18.48	7.82227
18.485	7.82227
18.49	7.82227
18.495	7.82227
18.5	7.82227
18.505	7.82227
18.51	7.82227
18.515	7.82227
18.52	7.82227
18.525	7.82227
18.53	7.82227
18.535	7.82227
18.54	7.82227
18.545	7.82227
18.55	7.82227
18.555	7.82227
18.56	7.82227
18.565	7.82227
18.57	7.82227
18.575	7.82227
18.58	7.82227
18.585	7.82227
18.59	7.82227
18.595	7.82227
18.6	7.82227
18.605	7.82227
18.61	7.82227
18.615	7.82227
18.62	7.91016
18.625	7.91016
18.63	7.91016
18.635	7.91016
18.64	7.91016
18.645	7.91016
18.65	7.91016
18.655	7.91016
18.66	7.91016
18.665	7.91016
18.67	7.91016
18.675	7.91016
18.68	7.91016
18.685	7.91016
18.69	7.91016
18.695	7.91016
18.7	7.91016
18.705	7.91016
18.71	7.91016
18.715	7.91016
18.72	7.99805
18.725	7.99805
18.73	7.99805
18.735	7.99805
18.74	7.99805
18.745	7.99805
18.75	7.99805
18.755	7.99805
18.76	7.99805
18.765	7.99805
18.77	7.99805
18.775	7.99805
18.78	7.99805
18.785	7.99805
18.79	7.99805
18.795	7.99805
18.8	7.99805
18.805	7.99805
18.81	7.99805
18.815	7.99805
18.82	7.99805
18.825	7.99805
18.83	7.99805
18.835	7.99805
18.84	7.99805
18.845	7.99805
18.85	7.99805
18.855	7.99805
18.86	7.99805
18.865	7.99805
18.87	7.99805
18.875	7.99805
18.88	7.99805
18.885	7.99805
18.89	7.99805
18.895	7.99805
18.9	7.99805
18.905	7.99805
18.91	7.99805
18.915	7.99805
18.92	7.99805
18.925	7.99805
18.93	7.99805
18.935	7.99805
18.94	7.99805
18.945	7.99805
18.95	7.99805
18.955	7.99805
18.96	8.08594
18.965	7.99805
18.97	7.99805
18.975	7.99805
18.98	7.99805
18.985	7.99805
18.99	7.99805
18.995	7.99805
19	7.99805
19.005	7.99805
19.01	8.08594
19.015	8.08594
19.02	8.08594
19.025	8.08594
19.03	8.08594
19.035	8.08594
19.04	8.08594
19.045	8.08594
19.05	8.08594
19.055	8.08594
19.06	8.08594
19.065	8.08594
19.07	8.08594
19.075	8.08594
19.08	8.08594
19.085	8.08594
19.09	8.08594
19.095	8.08594
19.1	8.17383
19.105	8.08594
19.11	8.17383
19.115	8.17383
19.12	8.17383
19.125	8.17383
19.13	8.17383
19.135	8.17383
19.14	8.17383
19.145	8.17383
19.15	8.17383
19.155	8.17383
19.16	8.17383
19.165	8.17383
19.17	8.17383
19.175	8.17383
19.18	8.17383
19.185	8.17383
19.19	8.17383
19.195	8.17383
19.2	8.17383
19.205	8.17383
19.21	8.17383
19.215	8.17383
19.22	8.17383
19.225	8.17383
19.23	8.17383
19.235	8.17383
19.24	8.17383
19.245	8.26172
19.25	8.17383
19.255	8.26172
19.26	8.26172
19.265	8.26172
19.27	8.26172
19.275	8.26172
19.28	8.26172
19.285	8.26172
19.29	8.26172
19.295	8.26172
19.3	8.26172
19.305	8.26172
19.31	8.26172
19.315	8.26172
19.32	8.26172
19.325	8.26172
19.33	8.26172
19.335	8.26172
19.34	8.26172
19.345	8.26172
19.35	8.26172
19.355	8.26172
19.36	8.26172
19.365	8.26172
19.37	8.26172
19.375	8.26172
19.38	8.26172
19.385	8.26172
19.39	8.26172
19.395	8.26172
19.4	8.26172
19.405	8.26172
19.41	8.26172
19.415	8.26172
19.42	8.26172
19.425	8.26172
19.43	8.26172
19.435	8.26172
19.44	8.26172
19.445	8.26172
19.45	8.34961
19.455	8.26172
19.46	8.26172
19.465	8.34961
19.47	8.34961
19.475	8.34961
19.48	8.26172
19.485	8.34961
19.49	8.34961
19.495	8.34961
19.5	8.34961
19.505	8.34961
19.51	8.34961
19.515	8.34961
19.52	8.34961
19.525	8.34961
19.53	8.34961
19.535	8.34961
19.54	8.34961
19.545	8.34961
19.55	8.34961
19.555	8.34961
19.56	8.34961
19.565	8.34961
19.57	8.34961
19.575	8.34961
19.58	8.34961
19.585	8.34961
19.59	8.34961
19.595	8.34961
19.6	8.34961
19.605	8.34961
19.61	8.4375
19.615	8.34961
19.62	8.4375
19.625	8.4375
19.63	8.4375
19.635	8.4375
19.64	8.4375
19.645	8.4375
19.65	8.4375
19.655	8.4375
19.66	8.4375
19.665	8.4375
19.67	8.4375
19.675	8.4375
19.68	8.4375
19.685	8.4375
19.69	8.4375
19.695	8.4375
19.7	8.4375
19.705	8.4375
19.71	8.4375
19.715	8.4375
19.72	8.4375
19.725	8.4375
19.73	8.4375
19.735	8.4375
19.74	8.4375
19.745	8.4375
19.75	8.4375
19.755	8.4375
19.76	8.4375
19.765	8.4375
19.77	8.4375
19.775	8.4375
19.78	8.4375
19.785	8.4375
19.79	8.4375
19.795	8.4375
19.8	8.4375
19.805	8.4375
19.81	8.4375
19.815	8.4375
19.82	8.4375
19.825	8.4375
19.83	8.4375
19.835	8.34961
19.84	8.34961
19.845	8.34961
19.85	8.34961
19.855	8.34961
19.86	8.34961
19.865	8.34961
19.87	8.34961
19.875	8.34961
19.88	8.34961
19.885	8.34961
19.89	8.34961
19.895	8.34961
19.9	8.34961
19.905	8.34961
19.91	8.34961
19.915	8.34961
19.92	8.34961
19.925	8.34961
19.93	8.26172
19.935	8.34961
19.94	8.26172
19.945	8.26172
19.95	8.26172
19.955	8.26172
19.96	8.26172
19.965	8.26172
19.97	8.26172
19.975	8.26172
19.98	8.26172
19.985	8.26172
19.99	8.26172
19.995	8.26172
20	8.26172
20.005	8.26172
20.01	8.34961
20.015	8.26172
20.02	8.34961
20.025	8.34961
20.03	8.34961
20.035	8.34961
20.04	8.34961
20.045	8.34961
20.05	8.34961
20.055	8.34961
20.06	8.26172
20.065	8.26172
20.07	8.34961
20.075	8.26172
20.08	8.34961
20.085	8.34961
20.09	8.34961
20.095	8.34961
20.1	8.34961
20.105	8.34961
20.11	8.34961
20.115	8.26172
20.12	8.34961
20.125	8.26172
20.13	8.26172
20.135	8.26172
20.14	8.17383
20.145	8.17383
20.15	8.17383
20.155	8.17383
20.16	8.08594
20.165	8.08594
20.17	8.08594
20.175	7.99805
20.18	7.99805
20.185	7.99805
20.19	7.91016
20.195	7.91016
20.2	7.91016
20.205	7.82227
20.21	7.73437
20.215	7.64648
20.22	7.64648
20.225	7.64648
20.23	7.55859
20.235	7.55859
20.24	7.55859
20.245	7.4707
20.25	7.4707
20.255	7.38281
20.26	7.38281
20.265	7.29492
20.27	7.29492
20.275	7.11914
20.28	7.11914
20.285	7.11914
20.29	6.94336
20.295	6.94336
20.3	6.94336
20.305	6.94336
20.31	6.85547
20.315	6.76758
20.32	6.76758
20.325	6.67969
20.33	6.5918
20.335	6.5918
20.34	6.5918
20.345	6.5918
20.35	6.5918
20.355	6.50391
20.36	6.50391
20.365	6.50391
20.37	6.41602
20.375	6.41602
20.38	6.41602
20.385	6.41602
20.39	6.41602
20.395	6.41602
20.4	6.41602
20.405	6.41602
20.41	6.41602
20.415	6.41602
20.42	6.41602
20.425	6.41602
20.43	6.41602
20.435	6.41602
20.44	6.50391
20.445	6.50391
20.45	6.50391
20.455	6.5918
20.46	6.5918
20.465	6.5918
20.47	6.67969
20.475	6.67969
20.48	6.76758
20.485	6.85547
20.49	6.85547
20.495	6.94336
20.5	6.94336
20.505	7.03125
20.51	7.29492
20.515	7.38281
20.52	7.55859
20.525	7.55859
20.53	7.82227
20.535	7.82227
20.54	7.91016
20.545	7.99805
20.55	8.08594
20.555	8.17383
20.56	8.4375
20.565	8.4375
20.57	8.52539
20.575	8.61328
20.58	8.61328
20.585	8.70117
20.59	8.70117
20.595	8.70117
20.6	8.78906
20.605	8.87695
20.61	8.87695
20.615	9.05273
20.62	9.05273
20.625	9.14063
20.63	9.22852
20.635	9.22852
20.64	9.22852
20.645	9.31641
20.65	9.31641
20.655	9.31641
20.66	9.31641
20.665	9.31641
20.67	9.31641
20.675	9.31641
20.68	9.31641
20.685	9.31641
20.69	9.4043
20.695	9.4043
20.7	9.4043
20.705	9.4043
20.71	9.4043
20.715	9.4043
20.72	9.49219
20.725	9.49219
20.73	9.4043
20.735	9.4043
20.74	9.49219
20.745	9.4043
20.75	9.4043
20.755	9.4043
20.76	9.31641
20.765	9.31641
20.77	9.31641
20.775	9.31641
20.78	9.22852
20.785	9.22852
20.79	9.22852
20.795	9.22852
20.8	9.22852
20.805	9.14063
20.81	9.14063
20.815	9.14063
20.82	9.05273
20.825	9.05273
20.83	9.05273
20.835	9.05273
20.84	8.96484
20.845	8.96484
20.85	8.96484
20.855	8.87695
20.86	8.87695
20.865	8.87695
20.87	8.78906
20.875	8.78906
20.88	8.70117
20.885	8.70117
20.89	8.70117
20.895	8.61328
20.9	8.61328
20.905	8.61328
20.91	8.52539
20.915	8.52539
20.92	8.52539
20.925	8.4375
20.93	8.4375
20.935	8.4375
20.94	8.4375
20.945	8.34961
20.95	8.34961
20.955	8.34961
20.96	8.26172
20.965	8.26172
20.97	8.26172
20.975	8.17383
20.98	8.17383
20.985	8.17383
20.99	8.17383
20.995	8.17383
21	8.08594
21.005	8.08594
21.01	8.08594
21.015	7.99805
21.02	7.99805
21.025	7.99805
21.03	7.99805
21.035	7.99805
21.04	7.99805
21.045	7.99805
21.05	7.99805
21.055	7.99805
21.06	7.99805
21.065	7.99805
21.07	7.99805
21.075	7.99805
21.08	7.99805
21.085	7.99805
21.09	7.99805
21.095	7.99805
21.1	8.08594
21.105	8.08594
21.11	8.08594
21.115	8.08594
21.12	8.08594
21.125	8.08594
21.13	8.08594
21.135	8.17383
21.14	8.17383
21.145	8.17383
21.15	8.17383
21.155	8.17383
21.16	8.17383
21.165	8.17383
21.17	8.17383
21.175	8.17383
21.18	8.17383
21.185	8.17383
21.19	8.26172
21.195	8.26172
21.2	8.26172
21.205	8.26172
21.21	8.26172
21.215	8.26172
21.22	8.26172
21.225	8.34961
21.23	8.34961
21.235	8.34961
21.24	8.34961
21.245	8.34961
21.25	8.34961
21.255	8.34961
21.26	8.34961
21.265	8.34961
21.27	8.34961
21.275	8.34961
21.28	8.34961
21.285	8.34961
21.29	8.34961
21.295	8.34961
21.3	8.34961
21.305	8.34961
21.31	8.34961
21.315	8.34961
21.32	8.34961
21.325	8.34961
21.33	8.34961
21.335	8.34961
21.34	8.34961
21.345	8.34961
21.35	8.34961
21.355	8.34961
21.36	8.34961
21.365	8.34961
21.37	8.34961
21.375	8.34961
21.38	8.34961
21.385	8.34961
21.39	8.34961
21.395	8.26172
21.4	8.26172
21.405	8.26172
21.41	8.26172
21.415	8.26172
21.42	8.26172
21.425	8.26172
21.43	8.17383
21.435	8.17383
21.44	8.17383
21.445	8.17383
21.45	8.17383
21.455	8.08594
21.46	8.08594
21.465	8.08594
21.47	8.08594
21.475	7.99805
21.48	7.99805
21.485	7.99805
21.49	7.99805
21.495	7.99805
21.5	7.91016
21.505	7.91016
21.51	7.82227
21.515	7.82227
21.52	7.82227
21.525	7.82227
21.53	7.82227
21.535	7.82227
21.54	7.82227
21.545	7.73437
21.55	7.73437
21.555	7.73437
21.56	7.73437
21.565	7.73437
21.57	7.64648
21.575	7.64648
21.58	7.64648
21.585	7.64648
21.59	7.64648
21.595	7.64648
21.6	7.55859
21.605	7.55859
21.61	7.55859
21.615	7.55859
21.62	7.55859
21.625	7.4707
21.63	7.4707
21.635	7.4707
21.64	7.4707
21.645	7.4707
21.65	7.4707
21.655	7.38281
21.66	7.38281
21.665	7.38281
21.67	7.38281
21.675	7.38281
21.68	7.29492
21.685	7.29492
21.69	7.29492
21.695	7.29492
21.7	7.29492
21.705	7.29492
21.71	7.29492
21.715	7.20703
21.72	7.20703
21.725	7.20703
21.73	7.20703
21.735	7.20703
21.74	7.20703
21.745	7.20703
21.75	7.11914
21.755	7.11914
21.76	7.11914
21.765	7.11914
21.77	7.11914
21.775	7.11914
21.78	7.11914
21.785	7.11914
21.79	7.11914
21.795	7.11914
21.8	7.11914
21.805	7.11914
21.81	7.11914
21.815	7.11914
21.82	7.11914
21.825	7.11914
21.83	7.11914
21.835	7.11914
21.84	7.11914
21.845	7.11914
21.85	7.11914
21.855	7.11914
21.86	7.11914
21.865	7.11914
21.87	7.03125
21.875	7.03125
21.88	7.03125
21.885	7.11914
21.89	7.11914
21.895	7.11914
21.9	7.11914
21.905	7.11914
21.91	7.11914
21.915	7.11914
21.92	7.11914
21.925	7.11914
21.93	7.11914
21.935	7.11914
21.94	7.11914
21.945	7.11914
21.95	7.11914
21.955	7.11914
21.96	7.03125
21.965	7.03125
21.97	7.03125
21.975	7.11914
21.98	7.11914
21.985	7.11914
21.99	7.11914
21.995	7.11914
22	7.11914
22.005	7.11914
22.01	7.11914
22.015	7.11914
22.02	7.20703
22.025	7.11914
22.03	7.11914
22.035	7.11914
22.04	7.11914
22.045	7.11914
22.05	7.11914
22.055	7.11914
22.06	7.11914
22.065	7.11914
22.07	7.11914
22.075	7.11914
22.08	7.20703
22.085	7.20703
22.09	7.20703
22.095	7.29492
22.1	7.29492
22.105	7.29492
22.11	7.29492
22.115	7.20703
22.12	7.20703
22.125	7.20703
22.13	7.20703
22.135	7.20703
22.14	7.20703
22.145	7.20703
22.15	7.20703
22.155	7.20703
22.16	7.20703
22.165	7.20703
22.17	7.20703
22.175	7.20703
22.18	7.29492
22.185	7.29492
22.19	7.29492
22.195	7.29492
22.2	7.38281
22.205	7.29492
22.21	7.29492
22.215	7.29492
22.22	7.29492
22.225	7.29492
22.23	7.29492
22.235	7.29492
22.24	7.29492
22.245	7.29492
22.25	7.29492
22.255	7.38281
22.26	7.38281
22.265	7.38281
22.27	7.38281
22.275	7.38281
22.28	7.38281
22.285	7.38281
22.29	7.38281
22.295	7.38281
22.3	7.38281
22.305	7.38281
22.31	7.38281
22.315	7.38281
22.32	7.38281
22.325	7.38281
22.33	7.38281
22.335	7.38281
22.34	7.4707
22.345	7.4707
22.35	7.4707
22.355	7.4707
22.36	7.4707
22.365	7.4707
22.37	7.4707
22.375	7.4707
22.38	7.4707
22.385	7.4707
22.39	7.4707
22.395	7.4707
22.4	7.4707
22.405	7.4707
22.41	7.4707
22.415	7.4707
22.42	7.4707
22.425	7.4707
22.43	7.4707
22.435	7.4707
22.44	7.4707
22.445	7.4707
22.45	7.4707
22.455	7.55859
22.46	7.55859
22.465	7.55859
22.47	7.55859
22.475	7.55859
22.48	7.55859
22.485	7.55859
22.49	7.55859
22.495	7.55859
22.5	7.55859
22.505	7.55859
22.51	7.55859
22.515	7.55859
22.52	7.55859
22.525	7.55859
22.53	7.55859
22.535	7.55859
22.54	7.55859
22.545	7.55859
22.55	7.55859
22.555	7.55859
22.56	7.55859
22.565	7.55859
22.57	7.55859
22.575	7.55859
22.58	7.55859
22.585	7.55859
22.59	7.55859
22.595	7.55859
22.6	7.55859
22.605	7.55859
22.61	7.55859
22.615	7.55859
22.62	7.55859
22.625	7.64648
22.63	7.64648
22.635	7.64648
22.64	7.64648
22.645	7.64648
22.65	7.64648
22.655	7.64648
22.66	7.64648
22.665	7.64648
22.67	7.64648
22.675	7.64648
22.68	7.64648
22.685	7.64648
22.69	7.64648
22.695	7.64648
22.7	7.64648
22.705	7.64648
22.71	7.64648
22.715	7.64648
22.72	7.64648
22.725	7.64648
22.73	7.64648
22.735	7.64648
22.74	7.64648
22.745	7.64648
22.75	7.64648
22.755	7.64648
22.76	7.64648
22.765	7.64648
22.77	7.64648
22.775	7.64648
22.78	7.64648
22.785	7.64648
22.79	7.64648
22.795	7.64648
22.8	7.64648
22.805	7.64648
22.81	7.64648
22.815	7.64648
22.82	7.64648
22.825	7.64648
22.83	7.64648
22.835	7.64648
22.84	7.64648
22.845	7.64648
22.85	7.73437
22.855	7.73437
22.86	7.73437
22.865	7.73437
22.87	7.73437
22.875	7.73437
22.88	7.73437
22.885	7.73437
22.89	7.73437
22.895	7.73437
22.9	7.73437
22.905	7.73437
22.91	7.73437
22.915	7.73437
22.92	7.73437
22.925	7.73437
22.93	7.73437
22.935	7.73437
22.94	7.73437
22.945	7.73437
22.95	7.73437
22.955	7.73437
22.96	7.82227
22.965	7.82227
22.97	7.82227
22.975	7.82227
22.98	7.82227
22.985	7.82227
22.99	7.82227
22.995	7.82227
23	7.82227
23.005	7.82227
23.01	7.82227
23.015	7.82227
23.02	7.82227
23.025	7.82227
23.03	7.82227
23.035	7.82227
23.04	7.82227
23.045	7.82227
23.05	7.82227
23.055	7.82227
23.06	7.82227
23.065	7.91016
23.07	7.91016
23.075	7.91016
23.08	7.91016
23.085	7.91016
23.09	7.91016
23.095	7.91016
23.1	7.91016
23.105	7.91016
23.11	7.91016
23.115	7.91016
23.12	7.91016
23.125	7.91016
23.13	7.91016
23.135	7.99805
23.14	7.99805
23.145	7.99805
23.15	7.99805
23.155	7.99805
23.16	7.99805
23.165	7.99805
23.17	7.99805
23.175	7.99805
23.18	7.99805
23.185	7.99805
23.19	7.99805
23.195	7.99805
23.2	8.08594
23.205	8.08594
23.21	8.08594
23.215	8.08594
23.22	8.08594
23.225	8.08594
23.23	8.08594
23.235	8.08594
23.24	8.08594
23.245	8.17383
23.25	8.17383
23.255	8.17383
23.26	8.17383
23.265	8.17383
23.27	8.17383
23.275	8.17383
23.28	8.17383
23.285	8.17383
23.29	8.17383
23.295	8.17383
23.3	8.26172
23.305	8.26172
23.31	8.26172
23.315	8.26172
23.32	8.26172
23.325	8.26172
23.33	8.26172
23.335	8.26172
23.34	8.26172
23.345	8.26172
23.35	8.26172
23.355	8.26172
23.36	8.34961
23.365	8.34961
23.37	8.34961
23.375	8.34961
23.38	8.34961
23.385	8.34961
23.39	8.34961
23.395	8.34961
23.4	8.34961
23.405	8.34961
23.41	8.34961
23.415	8.34961
23.42	8.34961
23.425	8.34961
23.43	8.34961
23.435	8.34961
23.44	8.34961
23.445	8.34961
23.45	8.4375
23.455	8.34961
23.46	8.4375
23.465	8.34961
23.47	8.4375
23.475	8.4375
23.48	8.4375
23.485	8.4375
23.49	8.4375
23.495	8.4375
23.5	8.4375
23.505	8.4375
23.51	8.4375
23.515	8.4375
23.52	8.4375
23.525	8.4375
23.53	8.4375
23.535	8.34961
23.54	8.4375
23.545	8.4375
23.55	8.34961
23.555	8.34961
23.56	8.34961
23.565	8.34961
23.57	8.34961
23.575	8.34961
23.58	8.34961
23.585	8.34961
23.59	8.34961
23.595	8.34961
23.6	8.34961
23.605	8.34961
23.61	8.34961
23.615	8.34961
23.62	8.34961
23.625	8.34961
23.63	8.34961
23.635	8.34961
23.64	8.34961
23.645	8.34961
23.65	8.34961
23.655	8.34961
23.66	8.34961
23.665	8.34961
23.67	8.34961
23.675	8.34961
23.68	8.34961
23.685	8.34961
23.69	8.34961
23.695	8.34961
23.7	8.34961
23.705	8.34961
23.71	8.34961
23.715	8.34961
23.72	8.26172
23.725	8.26172
23.73	8.26172
23.735	8.26172
23.74	8.26172
23.745	8.26172
23.75	8.26172
23.755	8.26172
23.76	8.26172
23.765	8.26172
23.77	8.26172
23.775	8.26172
23.78	8.26172
23.785	8.26172
23.79	8.26172
23.795	8.26172
23.8	8.26172
23.805	8.26172
23.81	8.26172
23.815	8.26172
23.82	8.26172
23.825	8.26172
23.83	8.26172
23.835	8.26172
23.84	8.26172
23.845	8.26172
23.85	8.26172
23.855	8.26172
23.86	8.26172
23.865	8.26172
23.87	8.26172
23.875	8.26172
23.88	8.17383
23.885	8.17383
23.89	8.17383
23.895	8.17383
23.9	8.17383
23.905	8.17383
23.91	8.17383
23.915	8.17383
23.92	8.17383
23.925	8.17383
23.93	8.17383
23.935	8.17383
23.94	8.17383
23.945	8.17383
23.95	8.17383
23.955	8.17383
23.96	8.17383
23.965	8.17383
23.97	8.17383
23.975	8.17383
23.98	8.17383
23.985	8.08594
23.99	8.08594
23.995	8.08594
24	8.08594
24.005	8.08594
24.01	8.08594
24.015	8.08594
24.02	8.08594
24.025	8.08594
24.03	8.08594
24.035	8.08594
24.04	8.08594
24.045	8.08594
24.05	8.08594
24.055	8.08594
24.06	7.99805
24.065	7.99805
24.07	7.99805
24.075	7.99805
24.08	7.99805
24.085	7.99805
24.09	7.99805
24.095	7.99805
24.1	7.99805
24.105	7.99805
24.11	7.99805
24.115	7.99805
24.12	7.99805
24.125	7.99805
24.13	7.99805
24.135	7.99805
24.14	7.99805
24.145	7.99805
24.15	7.99805
24.155	7.99805
24.16	7.99805
24.165	7.99805
24.17	7.99805
24.175	7.99805
24.18	7.99805
24.185	7.99805
24.19	7.99805
24.195	7.99805
24.2	7.99805
24.205	7.91016
24.21	7.91016
24.215	7.91016
24.22	7.91016
24.225	7.91016
24.23	7.91016
24.235	7.91016
24.24	7.91016
24.245	7.91016
24.25	7.91016
24.255	7.91016
24.26	7.91016
24.265	7.91016
24.27	7.91016
24.275	7.91016
24.28	7.91016
24.285	7.91016
24.29	7.91016
24.295	7.91016
24.3	7.91016
24.305	7.91016
24.31	7.91016
24.315	7.91016
24.32	7.91016
24.325	7.91016
24.33	7.91016
24.335	7.91016
24.34	7.91016
24.345	7.91016
24.35	7.91016
24.355	7.91016
24.36	7.91016
24.365	7.91016
24.37	7.91016
24.375	7.91016
24.38	7.91016
24.385	7.91016
24.39	7.91016
24.395	7.91016
24.4	7.91016
24.405	7.91016
24.41	7.91016
24.415	7.91016
24.42	7.91016
24.425	7.91016
24.43	7.91016
24.435	7.91016
24.44	7.91016
24.445	7.91016
24.45	7.91016
24.455	7.91016
24.46	7.91016
24.465	7.91016
24.47	7.91016
24.475	7.91016
24.48	7.91016
24.485	7.91016
24.49	7.91016
24.495	7.91016
24.5	7.91016
24.505	7.91016
24.51	7.91016
24.515	7.91016
24.52	7.99805
24.525	7.99805
24.53	7.91016
24.535	7.91016
24.54	7.99805
24.545	7.99805
24.55	7.99805
24.555	7.99805
24.56	7.99805
24.565	7.91016
24.57	7.91016
24.575	7.91016
24.58	7.91016
24.585	7.91016
24.59	7.91016
24.595	7.99805
24.6	7.91016
24.605	7.91016
24.61	7.99805
24.615	7.99805
24.62	7.91016
24.625	7.99805
24.63	7.99805
24.635	7.91016
24.64	7.99805
24.645	7.99805
24.65	7.91016
24.655	7.91016
24.66	7.91016
24.665	7.91016
24.67	7.91016
24.675	7.91016
24.68	7.91016
24.685	7.91016
24.69	7.91016
24.695	7.91016
24.7	7.91016
24.705	7.91016
24.71	7.91016
24.715	7.91016
24.72	7.91016
24.725	7.91016
24.73	7.91016
24.735	7.91016
24.74	7.91016
24.745	7.91016
24.75	7.91016
24.755	7.91016
24.76	7.91016
24.765	7.91016
24.77	7.91016
24.775	7.82227
24.78	7.82227
24.785	7.82227
24.79	7.82227
24.795	7.82227
24.8	7.82227
24.805	7.82227
24.81	7.82227
24.815	7.82227
24.82	7.82227
24.825	7.82227
24.83	7.82227
24.835	7.82227
24.84	7.82227
24.845	7.82227
24.85	7.82227
24.855	7.82227
24.86	7.82227
24.865	7.82227
24.87	7.82227
24.875	7.82227
24.88	7.82227
24.885	7.82227
24.89	7.82227
24.895	7.82227
24.9	7.82227
24.905	7.82227
24.91	7.82227
24.915	7.82227
24.92	7.82227
24.925	7.82227
24.93	7.82227
24.935	7.73437
24.94	7.82227
24.945	7.82227
24.95	7.73437
24.955	7.73437
24.96	7.73437
24.965	7.73437
24.97	7.73437
24.975	7.73437
24.98	7.73437
24.985	7.73437
24.99	7.73437
24.995	7.73437
25	7.73437
25.005	7.73437
25.01	7.73437
25.015	7.73437
25.02	7.73437
25.025	7.73437
25.03	7.73437
25.035	7.73437
25.04	7.73437
25.045	7.73437
25.05	7.73437
25.055	7.73437
25.06	7.82227
25.065	7.73437
25.07	7.82227
25.075	7.82227
25.08	7.82227
25.085	7.82227
25.09	7.82227
25.095	7.82227
25.1	7.82227
25.105	7.82227
25.11	7.82227
25.115	7.82227
25.12	7.82227
25.125	7.82227
25.13	7.82227
25.135	7.91016
25.14	7.91016
25.145	7.91016
25.15	7.91016
25.155	7.91016
25.16	7.91016
25.165	7.91016
25.17	7.91016
25.175	7.91016
25.18	7.91016
25.185	7.91016
25.19	7.91016
25.195	7.99805
25.2	7.99805
25.205	7.99805
25.21	7.99805
25.215	7.99805
25.22	7.99805
25.225	7.91016
25.23	7.99805
25.235	7.91016
25.24	7.99805
25.245	7.91016
25.25	7.99805
25.255	7.91016
25.26	7.91016
25.265	7.91016
25.27	7.91016
25.275	7.91016
25.28	7.82227
25.285	7.91016
25.29	7.82227
25.295	7.82227
25.3	7.82227
25.305	7.82227
25.31	7.82227
25.315	7.82227
25.32	7.82227
25.325	7.82227
25.33	7.82227
25.335	7.82227
25.34	7.73437
25.345	7.73437
25.35	7.73437
25.355	7.73437
25.36	7.73437
25.365	7.73437
25.37	7.64648
25.375	7.64648
25.38	7.64648
25.385	7.64648
25.39	7.64648
25.395	7.55859
25.4	7.55859
25.405	7.55859
25.41	7.4707
25.415	7.4707
25.42	7.4707
25.425	7.4707
25.43	7.4707
25.435	7.4707
25.44	7.38281
25.445	7.38281
25.45	7.29492
25.455	7.29492
25.46	7.29492
25.465	7.20703
25.47	7.20703
25.475	7.20703
25.48	7.20703
25.485	7.20703
25.49	7.11914
25.495	7.03125
25.5	6.94336
25.505	6.94336
25.51	6.94336
25.515	6.85547
25.52	6.85547
25.525	6.76758
25.53	6.67969
25.535	6.5918
25.54	6.5918
25.545	6.5918
25.55	6.50391
25.555	6.41602
25.56	6.41602
25.565	6.41602
25.57	6.32812
25.575	6.32812
25.58	6.24023
25.585	6.24023
25.59	6.15234
25.595	6.06445
25.6	6.06445
25.605	6.06445
25.61	5.97656
25.615	5.97656
25.62	5.80078
25.625	5.71289
25.63	5.71289
25.635	5.625
25.64	5.625
25.645	5.53711
25.65	5.53711
25.655	5.53711
25.66	5.53711
25.665	5.44922
25.67	5.36133
25.675	5.44922
25.68	5.36133
25.685	5.36133
25.69	5.36133
25.695	5.27344
25.7	5.27344
25.705	5.27344
25.71	5.27344
25.715	5.18555
25.72	5.18555
25.725	5.18555
25.73	5.18555
25.735	5.18555
25.74	5.18555
25.745	5.27344
25.75	5.18555
25.755	5.27344
25.76	5.27344
25.765	5.27344
25.77	5.27344
25.775	5.36133
25.78	5.36133
25.785	5.36133
25.79	5.36133
25.795	5.44922
25.8	5.44922
25.805	5.53711
25.81	5.53711
25.815	5.53711
25.82	5.53711
25.825	5.625
25.83	5.625
25.835	5.625
25.84	5.625
25.845	5.71289
25.85	5.80078
25.855	5.80078
25.86	5.88867
25.865	5.97656
25.87	5.97656
25.875	6.15234
25.88	6.15234
25.885	6.24023
25.89	6.32812
25.895	6.41602
25.9	6.50391
25.905	6.5918
25.91	6.67969
25.915	6.76758
25.92	6.76758
25.925	6.94336
25.93	6.94336
25.935	7.03125
25.94	7.11914
25.945	7.20703
25.95	7.20703
25.955	7.29492
25.96	7.29492
25.965	7.38281
25.97	7.4707
25.975	7.55859
25.98	7.55859
25.985	7.64648
25.99	7.73437
25.995	7.82227
26	7.82227
26.005	7.91016
26.01	7.99805
26.015	7.99805
26.02	8.08594
26.025	8.08594
26.03	8.17383
26.035	8.17383
26.04	8.17383
26.045	8.26172
26.05	8.26172
26.055	8.34961
26.06	8.34961
26.065	8.34961
26.07	8.34961
26.075	8.34961
26.08	8.4375
26.085	8.4375
26.09	8.4375
26.095	8.4375
26.1	8.4375
26.105	8.4375
26.11	8.52539
26.115	8.52539
26.12	8.52539
26.125	8.52539
26.13	8.52539
26.135	8.52539
26.14	8.52539
26.145	8.52539
26.15	8.52539
26.155	8.52539
26.16	8.52539
26.165	8.52539
26.17	8.52539
26.175	8.52539
26.18	8.52539
26.185	8.52539
26.19	8.52539
26.195	8.52539
26.2	8.52539
26.205	8.52539
26.21	8.52539
26.215	8.52539
26.22	8.52539
26.225	8.52539
26.23	8.52539
26.235	8.52539
26.24	8.52539
26.245	8.52539
26.25	8.52539
26.255	8.52539
26.26	8.52539
26.265	8.52539
26.27	8.52539
26.275	8.52539
26.28	8.52539
26.285	8.52539
26.29	8.52539
26.295	8.52539
26.3	8.52539
26.305	8.52539
26.31	8.52539
26.315	8.52539
26.32	8.52539
26.325	8.52539
26.33	8.52539
26.335	8.52539
26.34	8.52539
26.345	8.52539
26.35	8.52539
26.355	8.52539
26.36	8.52539
26.365	8.52539
26.37	8.61328
26.375	8.61328
26.38	8.61328
26.385	8.61328
26.39	8.61328
26.395	8.61328
26.4	8.61328
26.405	8.61328
26.41	8.61328
26.415	8.70117
26.42	8.70117
26.425	8.70117
26.43	8.70117
26.435	8.70117
26.44	8.70117
26.445	8.70117
26.45	8.78906
26.455	8.78906
26.46	8.78906
26.465	8.78906
26.47	8.78906
26.475	8.87695
26.48	8.87695
26.485	8.87695
26.49	8.87695
26.495	8.87695
26.5	8.87695
26.505	8.87695
26.51	8.87695
26.515	8.96484
26.52	8.96484
26.525	8.96484
26.53	8.96484
26.535	8.96484
26.54	8.96484
26.545	8.96484
26.55	9.05273
26.555	9.05273
26.56	9.05273
26.565	9.05273
26.57	9.05273
26.575	9.05273
26.58	9.05273
26.585	9.05273
26.59	9.05273
26.595	9.05273
26.6	9.05273
26.605	9.05273
26.61	9.05273
26.615	9.05273
26.62	9.05273
26.625	9.05273
26.63	9.05273
26.635	9.05273
26.64	9.05273
26.645	9.05273
26.65	9.05273
26.655	9.05273
26.66	9.05273
26.665	9.05273
26.67	9.05273
26.675	9.05273
26.68	9.05273
26.685	9.05273
26.69	9.05273
26.695	9.05273
26.7	9.05273
26.705	9.05273
26.71	9.05273
26.715	9.05273
26.72	9.05273
26.725	9.05273
26.73	9.05273
26.735	9.05273
26.74	8.96484
26.745	8.96484
26.75	8.96484
26.755	8.96484
26.76	8.96484
26.765	8.96484
26.77	8.87695
26.775	8.87695
26.78	8.87695
26.785	8.87695
26.79	8.87695
26.795	8.87695
26.8	8.87695
26.805	8.78906
26.81	8.78906
26.815	8.78906
26.82	8.78906
26.825	8.78906
26.83	8.78906
26.835	8.70117
26.84	8.70117
26.845	8.70117
26.85	8.70117
26.855	8.70117
26.86	8.70117
26.865	8.70117
26.87	8.70117
26.875	8.70117
26.88	8.70117
26.885	8.70117
26.89	8.70117
26.895	8.70117
26.9	8.61328
26.905	8.61328
26.91	8.61328
26.915	8.61328
26.92	8.61328
26.925	8.61328
26.93	8.61328
26.935	8.61328
26.94	8.52539
26.945	8.61328
26.95	8.52539
26.955	8.52539
26.96	8.52539
26.965	8.52539
26.97	8.52539
26.975	8.52539
26.98	8.52539
26.985	8.52539
26.99	8.52539
26.995	8.52539
27	8.4375
27.005	8.4375
27.01	8.4375
27.015	8.4375
27.02	8.4375
27.025	8.4375
27.03	8.4375
27.035	8.4375
27.04	8.4375
27.045	8.4375
27.05	8.4375
27.055	8.4375
27.06	8.4375
27.065	8.4375
27.07	8.4375
27.075	8.4375
27.08	8.34961
27.085	8.34961
27.09	8.34961
27.095	8.34961
27.1	8.34961
27.105	8.34961
27.11	8.34961
27.115	8.34961
27.12	8.34961
27.125	8.34961
27.13	8.34961
27.135	8.34961
27.14	8.34961
27.145	8.34961
27.15	8.34961
27.155	8.34961
27.16	8.34961
27.165	8.34961
27.17	8.26172
27.175	8.26172
27.18	8.26172
27.185	8.26172
27.19	8.26172
27.195	8.26172
27.2	8.26172
27.205	8.26172
27.21	8.26172
27.215	8.26172
27.22	8.26172
27.225	8.26172
27.23	8.26172
27.235	8.26172
27.24	8.17383
27.245	8.17383
27.25	8.17383
27.255	8.17383
27.26	8.17383
27.265	8.17383
27.27	8.17383
27.275	8.17383
27.28	8.17383
27.285	8.17383
27.29	8.17383
27.295	8.08594
27.3	8.08594
27.305	8.08594
27.31	8.08594
27.315	8.08594
27.32	8.08594
27.325	7.99805
27.33	7.99805
27.335	7.99805
27.34	7.99805
27.345	7.99805
27.35	7.99805
27.355	7.99805
27.36	7.99805
27.365	7.99805
27.37	7.99805
27.375	7.99805
27.38	7.99805
27.385	7.91016
27.39	7.99805
27.395	7.91016
27.4	7.91016
27.405	7.91016
27.41	7.91016
27.415	7.91016
27.42	7.91016
27.425	7.91016
27.43	7.91016
27.435	7.91016
27.44	7.91016
27.445	7.91016
27.45	7.91016
27.455	7.91016
27.46	7.82227
27.465	7.82227
27.47	7.82227
27.475	7.82227
27.48	7.82227
27.485	7.82227
27.49	7.82227
27.495	7.82227
27.5	7.82227
27.505	7.82227
27.51	7.82227
27.515	7.82227
27.52	7.82227
27.525	7.82227
27.53	7.82227
27.535	7.82227
27.54	7.82227
27.545	7.82227
27.55	7.82227
27.555	7.82227
27.56	7.82227
27.565	7.82227
27.57	7.82227
27.575	7.82227
27.58	7.82227
27.585	7.82227
27.59	7.73437
27.595	7.82227
27.6	7.73437
27.605	7.82227
27.61	7.73437
27.615	7.82227
27.62	7.82227
27.625	7.82227
27.63	7.82227
27.635	7.82227
27.64	7.82227
27.645	7.82227
27.65	7.82227
27.655	7.82227
27.66	7.82227
27.665	7.82227
27.67	7.82227
27.675	7.82227
27.68	7.82227
27.685	7.82227
27.69	7.82227
27.695	7.82227
27.7	7.82227
27.705	7.82227
27.71	7.82227
27.715	7.82227
27.72	7.82227
27.725	7.82227
27.73	7.82227
27.735	7.82227
27.74	7.82227
27.745	7.82227
27.75	7.82227
27.755	7.82227
27.76	7.82227
27.765	7.82227
27.77	7.82227
27.775	7.82227
27.78	7.82227
27.785	7.82227
27.79	7.82227
27.795	7.82227
27.8	7.82227
27.805	7.82227
27.81	7.82227
27.815	7.82227
27.82	7.82227
27.825	7.82227
27.83	7.82227
27.835	7.82227
27.84	7.82227
27.845	7.82227
27.85	7.82227
27.855	7.82227
27.86	7.82227
27.865	7.82227
27.87	7.82227
27.875	7.82227
27.88	7.82227
27.885	7.82227
27.89	7.82227
27.895	7.82227
27.9	7.82227
27.905	7.82227
27.91	7.82227
27.915	7.82227
27.92	7.91016
27.925	7.82227
27.93	7.91016
27.935	7.91016
27.94	7.91016
27.945	7.91016
27.95	7.91016
27.955	7.91016
27.96	7.91016
27.965	7.91016
27.97	7.91016
27.975	7.91016
27.98	7.91016
27.985	7.91016
27.99	7.91016
27.995	7.91016
28	7.91016
28.005	7.91016
28.01	7.91016
28.015	7.91016
28.02	7.91016
28.025	7.91016
28.03	7.91016
28.035	7.91016
28.04	7.91016
28.045	7.91016
28.05	7.91016
28.055	7.99805
28.06	7.99805
28.065	7.99805
28.07	7.99805
28.075	7.99805
28.08	7.99805
28.085	7.99805
28.09	7.99805
28.095	7.99805
28.1	7.99805
28.105	7.99805
28.11	7.99805
28.115	7.99805
28.12	7.99805
28.125	7.99805
28.13	7.99805
28.135	7.99805
28.14	7.99805
28.145	7.99805
28.15	7.99805
28.155	7.99805
28.16	7.99805
28.165	7.99805
28.17	7.99805
28.175	7.99805
28.18	7.99805
28.185	7.99805
28.19	7.99805
28.195	7.99805
28.2	8.08594
28.205	7.99805
28.21	7.99805
28.215	7.99805
28.22	7.99805
28.225	7.99805
28.23	8.08594
28.235	8.08594
28.24	7.99805
28.245	8.08594
28.25	7.99805
28.255	8.08594
28.26	8.08594
28.265	8.08594
28.27	8.08594
28.275	8.08594
28.28	8.08594
28.285	8.08594
28.29	8.08594
28.295	8.08594
28.3	8.08594
28.305	8.08594
28.31	8.08594
28.315	8.08594
28.32	8.08594
28.325	8.08594
28.33	8.08594
28.335	8.08594
28.34	8.08594
28.345	8.08594
28.35	8.08594
28.355	8.08594
28.36	8.08594
28.365	8.08594
28.37	8.08594
28.375	8.08594
28.38	8.08594
28.385	8.08594
28.39	8.08594
28.395	8.08594
28.4	8.08594
28.405	7.99805
28.41	8.08594
28.415	7.99805
28.42	7.99805
28.425	7.99805
28.43	8.08594
28.435	8.08594
28.44	8.08594
28.445	7.99805
28.45	7.99805
28.455	8.08594
28.46	8.08594
28.465	8.08594
28.47	8.08594
28.475	7.99805
28.48	8.08594
28.485	7.99805
28.49	8.08594
28.495	8.08594
28.5	8.08594
28.505	8.08594
28.51	8.08594
28.515	8.08594
28.52	8.08594
28.525	8.08594
28.53	8.08594
28.535	8.08594
28.54	8.08594
28.545	8.08594
28.55	8.08594
28.555	8.08594
28.56	8.08594
28.565	8.08594
28.57	8.08594
28.575	8.17383
28.58	8.17383
28.585	8.17383
28.59	8.17383
28.595	8.17383
28.6	8.17383
28.605	8.17383
28.61	8.17383
28.615	8.17383
28.62	8.17383
28.625	8.17383
28.63	8.17383
28.635	8.17383
28.64	8.17383
28.645	8.17383
28.65	8.17383
28.655	8.17383
28.66	8.17383
28.665	8.17383
28.67	8.26172
28.675	8.17383
28.68	8.26172
28.685	8.17383
28.69	8.26172
28.695	8.26172
28.7	8.17383
28.705	8.26172
28.71	8.26172
28.715	8.26172
28.72	8.26172
28.725	8.26172
28.73	8.26172
28.735	8.26172
28.74	8.26172
28.745	8.26172
28.75	8.26172
28.755	8.26172
28.76	8.26172
28.765	8.26172
28.77	8.26172
28.775	8.26172
28.78	8.26172
28.785	8.26172
28.79	8.26172
28.795	8.26172
28.8	8.26172
28.805	8.26172
28.81	8.26172
28.815	8.26172
28.82	8.26172
28.825	8.26172
28.83	8.26172
28.835	8.26172
28.84	8.26172
28.845	8.26172
28.85	8.26172
28.855	8.26172
28.86	8.26172
28.865	8.26172
28.87	8.26172
28.875	8.26172
28.88	8.26172
28.885	8.17383
28.89	8.26172
28.895	8.26172
28.9	8.17383
28.905	8.26172
28.91	8.17383
28.915	8.26172
28.92	8.17383
28.925	8.17383
28.93	8.17383
28.935	8.17383
28.94	8.17383
28.945	8.17383
28.95	8.17383
28.955	8.17383
28.96	8.17383
28.965	8.17383
28.97	8.17383
28.975	8.17383
28.98	8.17383
28.985	8.17383
28.99	8.17383
28.995	8.26172
29	8.17383
29.005	8.26172
29.01	8.17383
29.015	8.26172
29.02	8.17383
29.025	8.26172
29.03	8.17383
29.035	8.17383
29.04	8.26172
29.045	8.17383
29.05	8.26172
29.055	8.26172
29.06	8.26172
29.065	8.26172
29.07	8.26172
29.075	8.26172
29.08	8.26172
29.085	8.26172
29.09	8.26172
29.095	8.26172
29.1	8.26172
29.105	8.26172
29.11	8.26172
29.115	8.26172
29.12	8.26172
29.125	8.26172
29.13	8.26172
29.135	8.26172
29.14	8.26172
29.145	8.26172
29.15	8.26172
29.155	8.26172
29.16	8.26172
29.165	8.26172
29.17	8.26172
29.175	8.26172
29.18	8.26172
29.185	8.26172
29.19	8.26172
29.195	8.26172
29.2	8.26172
29.205	8.34961
29.21	8.34961
29.215	8.26172
29.22	8.34961
29.225	8.26172
29.23	8.34961
29.235	8.34961
29.24	8.34961
29.245	8.34961
29.25	8.34961
29.255	8.34961
29.26	8.34961
29.265	8.34961
29.27	8.34961
29.275	8.34961
29.28	8.34961
29.285	8.34961
29.29	8.34961
29.295	8.34961
29.3	8.34961
29.305	8.34961
29.31	8.34961
29.315	8.34961
29.32	8.34961
29.325	8.34961
29.33	8.34961
29.335	8.34961
29.34	8.34961
29.345	8.34961
29.35	8.4375
29.355	8.4375
29.36	8.4375
29.365	8.4375
29.37	8.4375
29.375	8.4375
29.38	8.4375
29.385	8.4375
29.39	8.4375
29.395	8.4375
29.4	8.4375
29.405	8.4375
29.41	8.4375
29.415	8.4375
29.42	8.4375
29.425	8.4375
29.43	8.52539
29.435	8.52539
29.44	8.52539
29.445	8.52539
29.45	8.52539
29.455	8.52539
29.46	8.52539
29.465	8.52539
29.47	8.52539
29.475	8.52539
29.48	8.52539
29.485	8.52539
29.49	8.52539
29.495	8.52539
29.5	8.52539
29.505	8.52539
29.51	8.52539
29.515	8.52539
29.52	8.52539
29.525	8.52539
29.53	8.52539
29.535	8.52539
29.54	8.52539
29.545	8.52539
29.55	8.52539
29.555	8.52539
29.56	8.52539
29.565	8.4375
29.57	8.52539
29.575	8.52539
29.58	8.4375
29.585	8.52539
29.59	8.4375
29.595	8.4375
29.6	8.4375
29.605	8.4375
29.61	8.4375
29.615	8.4375
29.62	8.4375
29.625	8.4375
29.63	8.4375
29.635	8.4375
29.64	8.4375
29.645	8.4375
29.65	8.4375
29.655	8.4375
29.66	8.4375
29.665	8.4375
29.67	8.4375
29.675	8.4375
29.68	8.4375
29.685	8.4375
29.69	8.34961
29.695	8.34961
29.7	8.34961
29.705	8.34961
29.71	8.34961
29.715	8.34961
29.72	8.34961
29.725	8.34961
29.73	8.34961
29.735	8.34961
29.74	8.34961
29.745	8.34961
29.75	8.34961
29.755	8.34961
29.76	8.34961
29.765	8.34961
29.77	8.34961
29.775	8.34961
29.78	8.34961
29.785	8.34961
29.79	8.34961
29.795	8.34961
29.8	8.34961
29.805	8.34961
29.81	8.34961
29.815	8.34961
29.82	8.26172
29.825	8.34961
29.83	8.26172
29.835	8.34961
29.84	8.26172
29.845	8.26172
29.85	8.26172
29.855	8.26172
29.86	8.26172
29.865	8.26172
29.87	8.26172
29.875	8.26172
29.88	8.26172
29.885	8.26172
29.89	8.26172
29.895	8.26172
29.9	8.26172
29.905	8.26172
29.91	8.26172
29.915	8.26172
29.92	8.26172
29.925	8.26172
29.93	8.17383
29.935	8.17383
29.94	8.17383
29.945	8.17383
29.95	8.17383
29.955	8.17383
29.96	8.17383
29.965	8.17383
29.97	8.17383
29.975	8.17383
29.98	8.17383
29.985	8.17383
29.99	8.17383
29.995	8.17383
30	8.17383
30.005	8.17383
30.01	8.17383
30.015	8.17383
30.02	8.17383
30.025	8.17383
30.03	8.17383
30.035	8.17383
30.04	8.17383
30.045	8.17383
30.05	8.17383
30.055	8.17383
30.06	8.17383
30.065	8.17383
30.07	8.17383
30.075	8.17383
30.08	8.08594
30.085	8.08594
30.09	8.08594
30.095	8.08594
30.1	8.17383
30.105	8.17383
30.11	8.17383
30.115	8.08594
30.12	8.08594
30.125	7.99805
30.13	7.99805
30.135	7.91016
30.14	7.91016
30.145	7.91016
30.15	7.91016
30.155	7.91016
30.16	7.82227
30.165	7.82227
30.17	7.82227
30.175	7.73437
30.18	7.64648
30.185	7.64648
30.19	7.55859
30.195	7.55859
30.2	7.55859
30.205	7.4707
30.21	7.4707
30.215	7.4707
30.22	7.29492
30.225	7.29492
30.23	7.11914
30.235	7.11914
30.24	7.03125
30.245	7.03125
30.25	6.94336
30.255	6.94336
30.26	6.85547
30.265	6.76758
30.27	6.76758
30.275	6.67969
30.28	6.5918
30.285	6.5918
30.29	6.5918
30.295	6.50391
30.3	6.50391
30.305	6.41602
30.31	6.41602
30.315	6.32812
30.32	6.24023
30.325	6.24023
30.33	6.24023
30.335	6.15234
30.34	6.06445
30.345	6.06445
30.35	6.06445
30.355	6.06445
30.36	6.06445
30.365	6.06445
30.37	6.06445
30.375	6.06445
30.38	6.06445
30.385	6.06445
30.39	6.06445
30.395	6.06445
30.4	6.06445
30.405	6.15234
30.41	6.15234
30.415	6.15234
30.42	6.15234
30.425	6.32812
30.43	6.32812
30.435	6.32812
30.44	6.32812
30.445	6.41602
30.45	6.41602
30.455	6.5918
30.46	6.5918
30.465	6.76758
30.47	6.85547
30.475	6.94336
30.48	7.11914
30.485	7.20703
30.49	7.20703
30.495	7.38281
30.5	7.4707
30.505	7.64648
30.51	7.73437
30.515	7.82227
30.52	7.99805
30.525	8.08594
30.53	8.34961
30.535	8.34961
30.54	8.4375
30.545	8.52539
30.55	8.61328
30.555	8.61328
30.56	8.87695
30.565	8.87695
30.57	8.87695
30.575	9.05273
30.58	9.14063
30.585	9.22852
30.59	9.31641
30.595	9.31641
30.6	9.31641
30.605	9.4043
30.61	9.4043
30.615	9.49219
30.62	9.49219
30.625	9.49219
30.63	9.58008
30.635	9.58008
30.64	9.58008
30.645	9.58008
30.65	9.66797
30.655	9.58008
30.66	9.58008
30.665	9.58008
30.67	9.49219
30.675	9.49219
30.68	9.49219
30.685	9.49219
30.69	9.4043
30.695	9.4043
30.7	9.4043
30.705	9.4043
30.71	9.31641
30.715	9.31641
30.72	9.22852
30.725	9.22852
30.73	9.14063
30.735	9.14063
30.74	9.05273
30.745	9.05273
30.75	8.96484
30.755	8.96484
30.76	8.96484
30.765	8.87695
30.77	8.87695
30.775	8.87695
30.78	8.87695
30.785	8.87695
30.79	8.78906
30.795	8.70117
30.8	8.70117
30.805	8.70117
30.81	8.61328
30.815	8.61328
30.82	8.52539
30.825	8.4375
30.83	8.4375
30.835	8.34961
30.84	8.26172
30.845	8.26172
30.85	8.26172
30.855	8.26172
30.86	8.17383
30.865	8.17383
30.87	8.17383
30.875	8.17383
30.88	8.08594
30.885	7.99805
30.89	7.99805
30.895	7.99805
30.9	7.91016
30.905	7.91016
30.91	7.91016
30.915	7.82227
30.92	7.82227
30.925	7.82227
30.93	7.82227
30.935	7.82227
30.94	7.82227
30.945	7.82227
30.95	7.82227
30.955	7.82227
30.96	7.73437
30.965	7.73437
30.97	7.73437
30.975	7.73437
30.98	7.73437
30.985	7.73437
30.99	7.73437
30.995	7.73437
31	7.73437
31.005	7.73437
31.01	7.73437
31.015	7.73437
31.02	7.73437
31.025	7.73437
31.03	7.73437
31.035	7.73437
31.04	7.73437
31.045	7.73437
31.05	7.73437
31.055	7.73437
31.06	7.82227
31.065	7.82227
31.07	7.82227
31.075	7.82227
31.08	7.82227
31.085	7.82227
31.09	7.82227
31.095	7.91016
31.1	7.91016
31.105	7.91016
31.11	7.91016
31.115	7.91016
31.12	7.91016
31.125	7.91016
31.13	7.99805
31.135	7.99805
31.14	7.99805
31.145	7.99805
31.15	7.99805
31.155	8.08594
31.16	8.08594
31.165	8.08594
31.17	8.17383
31.175	8.17383
31.18	8.17383
31.185	8.17383
31.19	8.17383
31.195	8.26172
31.2	8.26172
31.205	8.26172
31.21	8.34961
31.215	8.34961
31.22	8.34961
31.225	8.34961
31.23	8.4375
31.235	8.4375
31.24	8.4375
31.245	8.4375
31.25	8.4375
31.255	8.4375
31.26	8.4375
31.265	8.52539
31.27	8.52539
31.275	8.52539
31.28	8.52539
31.285	8.52539
31.29	8.52539
31.295	8.52539
31.3	8.52539
31.305	8.52539
31.31	8.52539
31.315	8.52539
31.32	8.52539
31.325	8.52539
31.33	8.52539
31.335	8.52539
31.34	8.52539
31.345	8.52539
31.35	8.61328
31.355	8.61328
31.36	8.61328
31.365	8.61328
31.37	8.61328
31.375	8.61328
31.38	8.61328
31.385	8.61328
31.39	8.61328
31.395	8.61328
31.4	8.61328
31.405	8.61328
31.41	8.61328
31.415	8.61328
31.42	8.61328
31.425	8.61328
31.43	8.52539
31.435	8.52539
31.44	8.52539
31.445	8.52539
31.45	8.52539
31.455	8.52539
31.46	8.52539
31.465	8.52539
31.47	8.52539
31.475	8.52539
31.48	8.52539
31.485	8.52539
31.49	8.52539
31.495	8.52539
31.5	8.52539
31.505	8.52539
31.51	8.52539
31.515	8.52539
31.52	8.4375
31.525	8.4375
31.53	8.4375
31.535	8.4375
31.54	8.4375
31.545	8.34961
31.55	8.34961
31.555	8.34961
31.56	8.34961
31.565	8.34961
31.57	8.34961
31.575	8.34961
31.58	8.34961
31.585	8.34961
31.59	8.34961
31.595	8.34961
31.6	8.26172
31.605	8.26172
31.61	8.26172
31.615	8.26172
31.62	8.26172
31.625	8.26172
31.63	8.26172
31.635	8.26172
31.64	8.17383
31.645	8.17383
31.65	8.17383
31.655	8.17383
31.66	8.17383
31.665	8.17383
31.67	8.17383
31.675	8.08594
31.68	8.08594
31.685	8.08594
31.69	8.08594
31.695	8.08594
31.7	8.08594
31.705	8.08594
31.71	7.99805
31.715	7.99805
31.72	7.99805
31.725	7.99805
31.73	7.99805
31.735	7.99805
31.74	7.99805
31.745	7.99805
31.75	7.99805
31.755	7.99805
31.76	7.99805
31.765	7.99805
31.77	7.99805
31.775	7.99805
31.78	7.99805
31.785	7.99805
31.79	7.99805
31.795	7.99805
31.8	7.99805
31.805	7.99805
31.81	7.99805
31.815	7.99805
31.82	7.99805
31.825	7.99805
31.83	7.99805
31.835	7.91016
31.84	7.91016
31.845	7.91016
31.85	7.91016
31.855	7.91016
31.86	7.91016
31.865	7.91016
31.87	7.91016
31.875	7.91016
31.88	7.91016
31.885	7.91016
31.89	7.91016
31.895	7.99805
31.9	7.99805
31.905	7.99805
31.91	7.99805
31.915	7.99805
31.92	7.99805
31.925	7.99805
31.93	7.99805
31.935	7.91016
31.94	7.91016
31.945	7.91016
31.95	7.91016
31.955	7.91016
31.96	7.91016
31.965	7.91016
31.97	7.91016
31.975	7.91016
31.98	7.91016
31.985	7.99805
31.99	7.99805
31.995	7.99805
32	7.99805
32.005	7.99805
32.01	7.99805
32.015	7.99805
32.02	7.99805
32.025	7.99805
32.03	7.99805
32.035	7.99805
32.04	7.99805
32.045	7.99805
32.05	7.91016
32.055	7.91016
32.06	7.99805
32.065	7.99805
32.07	7.99805
32.075	7.99805
32.08	7.99805
32.085	7.99805
32.09	7.99805
32.095	7.99805
32.1	7.99805
32.105	7.99805
32.11	7.99805
32.115	7.99805
32.12	8.08594
32.125	7.99805
32.13	7.99805
32.135	7.99805
32.14	7.99805
32.145	7.99805
32.15	7.99805
32.155	7.99805
32.16	7.99805
32.165	7.99805
32.17	7.99805
32.175	7.99805
32.18	7.99805
32.185	7.99805
32.19	7.99805
32.195	7.99805
32.2	8.08594
32.205	7.99805
32.21	8.08594
32.215	8.08594
32.22	7.99805
32.225	7.99805
32.23	7.99805
32.235	7.99805
32.24	7.99805
32.245	7.99805
32.25	7.99805
32.255	7.99805
32.26	7.99805
32.265	7.99805
32.27	7.99805
32.275	7.99805
32.28	7.99805
32.285	7.99805
32.29	7.99805
32.295	7.99805
32.3	8.08594
32.305	8.08594
32.31	8.08594
32.315	8.08594
32.32	7.99805
32.325	7.99805
32.33	8.08594
32.335	8.08594
32.34	8.08594
32.345	8.08594
32.35	8.08594
32.355	8.08594
32.36	8.08594
32.365	8.08594
32.37	8.08594
32.375	8.08594
32.38	8.08594
32.385	8.08594
32.39	8.08594
32.395	8.08594
32.4	8.08594
32.405	8.08594
32.41	8.08594
32.415	8.08594
32.42	8.08594
32.425	8.08594
32.43	8.08594
32.435	8.08594
32.44	8.08594
32.445	8.08594
32.45	8.08594
32.455	8.17383
32.46	8.17383
32.465	8.17383
32.47	8.17383
32.475	8.17383
32.48	8.17383
32.485	8.17383
32.49	8.17383
32.495	8.17383
32.5	8.17383
32.505	8.17383
32.51	8.17383
32.515	8.17383
32.52	8.17383
32.525	8.26172
32.53	8.17383
32.535	8.17383
32.54	8.26172
32.545	8.26172
32.55	8.26172
32.555	8.26172
32.56	8.26172
32.565	8.26172
32.57	8.26172
32.575	8.26172
32.58	8.26172
32.585	8.26172
32.59	8.26172
32.595	8.26172
32.6	8.26172
32.605	8.26172
32.61	8.26172
32.615	8.26172
32.62	8.26172
32.625	8.26172
32.63	8.26172
32.635	8.26172
32.64	8.26172
32.645	8.26172
32.65	8.26172
32.655	8.26172
32.66	8.26172
32.665	8.26172
32.67	8.26172
32.675	8.26172
32.68	8.26172
32.685	8.26172
32.69	8.26172
32.695	8.34961
32.7	8.34961
32.705	8.34961
32.71	8.34961
32.715	8.34961
32.72	8.34961
32.725	8.34961
32.73	8.34961
32.735	8.34961
32.74	8.26172
32.745	8.26172
32.75	8.26172
32.755	8.26172
32.76	8.34961
32.765	8.26172
32.77	8.26172
32.775	8.34961
32.78	8.26172
32.785	8.26172
32.79	8.26172
32.795	8.26172
32.8	8.34961
32.805	8.26172
32.81	8.26172
32.815	8.34961
32.82	8.26172
32.825	8.26172
32.83	8.26172
32.835	8.34961
32.84	8.26172
32.845	8.34961
32.85	8.34961
32.855	8.26172
32.86	8.26172
32.865	8.26172
32.87	8.26172
32.875	8.26172
32.88	8.26172
32.885	8.26172
32.89	8.26172
32.895	8.26172
32.9	8.26172
32.905	8.26172
32.91	8.26172
32.915	8.26172
32.92	8.34961
32.925	8.34961
32.93	8.34961
32.935	8.34961
32.94	8.34961
32.945	8.34961
32.95	8.34961
32.955	8.34961
32.96	8.34961
32.965	8.34961
32.97	8.34961
32.975	8.34961
32.98	8.34961
32.985	8.34961
32.99	8.34961
32.995	8.34961
33	8.34961
33.005	8.34961
33.01	8.34961
33.015	8.34961
33.02	8.34961
33.025	8.34961
33.03	8.34961
33.035	8.34961
33.04	8.34961
33.045	8.34961
33.05	8.34961
33.055	8.34961
33.06	8.34961
33.065	8.34961
33.07	8.34961
33.075	8.34961
33.08	8.34961
33.085	8.26172
33.09	8.26172
33.095	8.26172
33.1	8.26172
33.105	8.26172
33.11	8.26172
33.115	8.26172
33.12	8.26172
33.125	8.26172
33.13	8.26172
33.135	8.26172
33.14	8.26172
33.145	8.26172
33.15	8.26172
33.155	8.26172
33.16	8.26172
33.165	8.26172
33.17	8.26172
33.175	8.26172
33.18	8.26172
33.185	8.26172
33.19	8.26172
33.195	8.26172
33.2	8.26172
33.205	8.26172
33.21	8.26172
33.215	8.26172
33.22	8.26172
33.225	8.26172
33.23	8.26172
33.235	8.26172
33.24	8.26172
33.245	8.26172
33.25	8.17383
33.255	8.17383
33.26	8.17383
33.265	8.26172
33.27	8.26172
33.275	8.26172
33.28	8.26172
33.285	8.26172
33.29	8.26172
33.295	8.26172
33.3	8.26172
33.305	8.26172
33.31	8.26172
33.315	8.26172
33.32	8.26172
33.325	8.26172
33.33	8.26172
33.335	8.26172
33.34	8.26172
33.345	8.26172
33.35	8.26172
33.355	8.26172
33.36	8.26172
33.365	8.26172
33.37	8.26172
33.375	8.26172
33.38	8.26172
33.385	8.26172
33.39	8.26172
33.395	8.26172
33.4	8.26172
33.405	8.26172
33.41	8.26172
33.415	8.26172
33.42	8.26172
33.425	8.26172
33.43	8.26172
33.435	8.26172
33.44	8.26172
33.445	8.26172
33.45	8.26172
33.455	8.26172
33.46	8.26172
33.465	8.34961
33.47	8.34961
33.475	8.34961
33.48	8.34961
33.485	8.26172
33.49	8.26172
33.495	8.26172
33.5	8.26172
33.505	8.26172
33.51	8.34961
33.515	8.26172
33.52	8.26172
33.525	8.34961
33.53	8.34961
33.535	8.34961
33.54	8.34961
33.545	8.34961
33.55	8.34961
33.555	8.34961
33.56	8.34961
33.565	8.34961
33.57	8.34961
33.575	8.34961
33.58	8.34961
33.585	8.34961
33.59	8.26172
33.595	8.26172
33.6	8.34961
33.605	8.34961
33.61	8.26172
33.615	8.26172
33.62	8.26172
33.625	8.26172
33.63	8.26172
33.635	8.26172
33.64	8.26172
33.645	8.26172
33.65	8.26172
33.655	8.26172
33.66	8.26172
33.665	8.26172
33.67	8.26172
33.675	8.26172
33.68	8.26172
33.685	8.26172
33.69	8.26172
33.695	8.26172
33.7	8.26172
33.705	8.26172
33.71	8.26172
33.715	8.26172
33.72	8.26172
33.725	8.26172
33.73	8.26172
33.735	8.26172
33.74	8.17383
33.745	8.17383
33.75	8.17383
33.755	8.17383
33.76	8.17383
33.765	8.17383
33.77	8.17383
33.775	8.17383
33.78	8.17383
33.785	8.17383
33.79	8.17383
33.795	8.17383
33.8	8.17383
33.805	8.17383
33.81	8.17383
33.815	8.17383
33.82	8.17383
33.825	8.17383
33.83	8.17383
33.835	8.17383
33.84	8.08594
33.845	8.08594
33.85	8.08594
33.855	8.08594
33.86	8.08594
33.865	8.08594
33.87	8.08594
33.875	8.08594
33.88	8.08594
33.885	8.08594
33.89	8.08594
33.895	8.08594
33.9	8.08594
33.905	8.08594
33.91	8.08594
33.915	8.08594
33.92	8.08594
33.925	8.08594
33.93	8.08594
33.935	8.08594
33.94	8.08594
33.945	8.08594
33.95	8.08594
33.955	8.08594
33.96	8.08594
33.965	8.08594
33.97	8.08594
