time (s) - Measured	Pitch (deg) - Measured
0	0
0.005	0
0.01	-0.0878906
0.015	-0.0878906
0.02	0
0.025	0.0878906
0.03	0.0878906
0.035	0.0878906
0.04	0.175781
0.045	0.175781
0.05	0.175781
0.055	0.263672
0.06	0.175781
0.065	0.175781
0.07	0.263672
0.075	0.175781
0.08	0.175781
0.085	0.175781
0.09	0.175781
0.095	0.175781
0.1	0.175781
0.105	0.175781
0.11	0.175781
0.115	0.175781
0.12	0.175781
0.125	0.175781
0.13	0.175781
0.135	0.175781
0.14	0.175781
0.145	0.175781
0.15	0.175781
0.155	0.175781
0.16	0.0878906
0.165	0.0878906
0.17	0.0878906
0.175	0.0878906
0.18	0.0878906
0.185	0.0878906
0.19	0.0878906
0.195	0.0878906
0.2	0.0878906
0.205	0.0878906
0.21	0.0878906
0.215	0.0878906
0.22	0
0.225	0
0.23	0
0.235	0
0.24	0
0.245	-0.0878906
0.25	-0.0878906
0.255	-0.0878906
0.26	-0.0878906
0.265	-0.175781
0.27	-0.175781
0.275	-0.175781
0.28	-0.175781
0.285	-0.175781
0.29	-0.175781
0.295	-0.175781
0.3	-0.263672
0.305	-0.263672
0.31	-0.263672
0.315	-0.263672
0.32	-0.263672
0.325	-0.351562
0.33	-0.263672
0.335	-0.351562
0.34	-0.351562
0.345	-0.351562
0.35	-0.351562
0.355	-0.351562
0.36	-0.351562
0.365	-0.263672
0.37	-0.263672
0.375	-0.263672
0.38	-0.263672
0.385	-0.263672
0.39	-0.175781
0.395	-0.175781
0.4	-0.175781
0.405	-0.175781
0.41	-0.0878906
0.415	-0.0878906
0.42	-0.0878906
0.425	-0.0878906
0.43	0
0.435	0
0.44	0.0878906
0.445	0.0878906
0.45	0.175781
0.455	0.263672
0.46	0.263672
0.465	0.351562
0.47	0.439453
0.475	0.527344
0.48	0.527344
0.485	0.615234
0.49	0.615234
0.495	0.703125
0.5	0.703125
0.505	0.791016
0.51	0.878906
0.515	1.05469
0.52	1.05469
0.525	1.23047
0.53	1.23047
0.535	1.31836
0.54	1.49414
0.545	1.49414
0.55	1.58203
0.555	1.66992
0.56	1.75781
0.565	1.93359
0.57	1.93359
0.575	2.02148
0.58	2.10938
0.585	2.28516
0.59	2.37305
0.595	2.46094
0.6	2.63672
0.605	2.72461
0.61	2.72461
0.615	2.8125
0.62	2.90039
0.625	3.07617
0.63	3.16406
0.635	3.25195
0.64	3.33984
0.645	3.51563
0.65	3.51563
0.655	3.51563
0.66	3.69141
0.665	3.69141
0.67	3.7793
0.675	3.7793
0.68	3.86719
0.685	3.86719
0.69	3.86719
0.695	3.95508
0.7	4.04297
0.705	4.04297
0.71	4.13086
0.715	4.21875
0.72	4.21875
0.725	4.30664
0.73	4.48242
0.735	4.48242
0.74	4.48242
0.745	4.57031
0.75	4.57031
0.755	4.57031
0.76	4.6582
0.765	4.6582
0.77	4.6582
0.775	4.6582
0.78	4.6582
0.785	4.74609
0.79	4.74609
0.795	4.74609
0.8	4.83398
0.805	4.92188
0.81	4.92188
0.815	4.92188
0.82	5.09766
0.825	5.09766
0.83	5.09766
0.835	5.09766
0.84	5.18555
0.845	5.18555
0.85	5.18555
0.855	5.18555
0.86	5.18555
0.865	5.18555
0.87	5.18555
0.875	5.18555
0.88	5.27344
0.885	5.27344
0.89	5.36133
0.895	5.36133
0.9	5.44922
0.905	5.44922
0.91	5.44922
0.915	5.44922
0.92	5.53711
0.925	5.53711
0.93	5.44922
0.935	5.44922
0.94	5.44922
0.945	5.44922
0.95	5.44922
0.955	5.44922
0.96	5.44922
0.965	5.44922
0.97	5.44922
0.975	5.44922
0.98	5.53711
0.985	5.625
0.99	5.625
0.995	5.625
1	5.625
1.005	5.625
1.01	5.625
1.015	5.53711
1.02	5.53711
1.025	5.53711
1.03	5.44922
1.035	5.44922
1.04	5.44922
1.045	5.44922
1.05	5.44922
1.055	5.44922
1.06	5.44922
1.065	5.44922
1.07	5.44922
1.075	5.53711
1.08	5.44922
1.085	5.44922
1.09	5.44922
1.095	5.36133
1.1	5.36133
1.105	5.27344
1.11	5.27344
1.115	5.27344
1.12	5.18555
1.125	5.18555
1.13	5.18555
1.135	5.18555
1.14	5.18555
1.145	5.18555
1.15	5.09766
1.155	5.09766
1.16	5.00977
1.165	4.92188
1.17	4.92188
1.175	4.92188
1.18	4.92188
1.185	4.83398
1.19	4.83398
1.195	4.83398
1.2	4.74609
1.205	4.74609
1.21	4.74609
1.215	4.74609
1.22	4.74609
1.225	4.6582
1.23	4.57031
1.235	4.48242
1.24	4.39453
1.245	4.30664
1.25	4.30664
1.255	4.21875
1.26	4.21875
1.265	4.21875
1.27	4.13086
1.275	4.13086
1.28	4.13086
1.285	4.13086
1.29	4.04297
1.295	4.04297
1.3	3.95508
1.305	3.95508
1.31	3.86719
1.315	3.86719
1.32	3.7793
1.325	3.7793
1.33	3.69141
1.335	3.69141
1.34	3.60352
1.345	3.60352
1.35	3.60352
1.355	3.60352
1.36	3.51563
1.365	3.51563
1.37	3.51563
1.375	3.42773
1.38	3.42773
1.385	3.42773
1.39	3.42773
1.395	3.42773
1.4	3.42773
1.405	3.42773
1.41	3.51563
1.415	3.51563
1.42	3.51563
1.425	3.60352
1.43	3.51563
1.435	3.51563
1.44	3.60352
1.445	3.69141
1.45	3.69141
1.455	3.7793
1.46	3.7793
1.465	3.7793
1.47	3.95508
1.475	4.04297
1.48	4.21875
1.485	4.30664
1.49	4.30664
1.495	4.39453
1.5	4.48242
1.505	4.57031
1.51	4.74609
1.515	4.83398
1.52	5.09766
1.525	5.18555
1.53	5.27344
1.535	5.625
1.54	5.625
1.545	5.80078
1.55	5.97656
1.555	6.15234
1.56	6.41602
1.565	6.50391
1.57	6.85547
1.575	6.94336
1.58	7.03125
1.585	7.38281
1.59	7.38281
1.595	7.55859
1.6	7.82227
1.605	7.91016
1.61	7.99805
1.615	8.26172
1.62	8.34961
1.625	8.4375
1.63	8.61328
1.635	8.70117
1.64	8.78906
1.645	9.05273
1.65	9.14063
1.655	9.31641
1.66	9.4043
1.665	9.4043
1.67	9.49219
1.675	9.58008
1.68	9.66797
1.685	9.75586
1.69	9.84375
1.695	9.93164
1.7	10.0195
1.705	10.1074
1.71	10.1074
1.715	10.1953
1.72	10.2832
1.725	10.2832
1.73	10.3711
1.735	10.3711
1.74	10.459
1.745	10.459
1.75	10.459
1.755	10.459
1.76	10.5469
1.765	10.5469
1.77	10.5469
1.775	10.6348
1.78	10.6348
1.785	10.6348
1.79	10.6348
1.795	10.6348
1.8	10.6348
1.805	10.6348
1.81	10.6348
1.815	10.6348
1.82	10.6348
1.825	10.6348
1.83	10.5469
1.835	10.5469
1.84	10.5469
1.845	10.5469
1.85	10.5469
1.855	10.5469
1.86	10.5469
1.865	10.5469
1.87	10.5469
1.875	10.459
1.88	10.459
1.885	10.459
1.89	10.459
1.895	10.459
1.9	10.3711
1.905	10.3711
1.91	10.3711
1.915	10.3711
1.92	10.3711
1.925	10.3711
1.93	10.3711
1.935	10.3711
1.94	10.3711
1.945	10.3711
1.95	10.2832
1.955	10.2832
1.96	10.2832
1.965	10.2832
1.97	10.2832
1.975	10.1953
1.98	10.1953
1.985	10.1953
1.99	10.1953
1.995	10.1953
2	10.1953
2.005	10.1953
2.01	10.1953
2.015	10.1953
2.02	10.1953
2.025	10.1074
2.03	10.1074
2.035	10.1074
2.04	10.1953
2.045	10.1953
2.05	10.1953
2.055	10.1953
2.06	10.1953
2.065	10.1953
2.07	10.1953
2.075	10.1953
2.08	10.1953
2.085	10.1953
2.09	10.1953
2.095	10.1953
2.1	10.1953
2.105	10.1953
2.11	10.1953
2.115	10.2832
2.12	10.2832
2.125	10.2832
2.13	10.2832
2.135	10.2832
2.14	10.2832
2.145	10.2832
2.15	10.2832
2.155	10.3711
2.16	10.3711
2.165	10.3711
2.17	10.3711
2.175	10.3711
2.18	10.3711
2.185	10.3711
2.19	10.3711
2.195	10.3711
2.2	10.3711
2.205	10.459
2.21	10.459
2.215	10.459
2.22	10.459
2.225	10.459
2.23	10.459
2.235	10.459
2.24	10.459
2.245	10.459
2.25	10.459
2.255	10.459
2.26	10.459
2.265	10.459
2.27	10.5469
2.275	10.5469
2.28	10.5469
2.285	10.5469
2.29	10.5469
2.295	10.5469
2.3	10.5469
2.305	10.5469
2.31	10.5469
2.315	10.5469
2.32	10.5469
2.325	10.5469
2.33	10.5469
2.335	10.5469
2.34	10.5469
2.345	10.5469
2.35	10.5469
2.355	10.5469
2.36	10.5469
2.365	10.5469
2.37	10.5469
2.375	10.5469
2.38	10.459
2.385	10.459
2.39	10.459
2.395	10.459
2.4	10.459
2.405	10.459
2.41	10.459
2.415	10.459
2.42	10.459
2.425	10.3711
2.43	10.459
2.435	10.459
2.44	10.3711
2.445	10.3711
2.45	10.459
2.455	10.3711
2.46	10.3711
2.465	10.3711
2.47	10.3711
2.475	10.3711
2.48	10.3711
2.485	10.2832
2.49	10.2832
2.495	10.2832
2.5	10.2832
2.505	10.1953
2.51	10.1953
2.515	10.1953
2.52	10.1953
2.525	10.1953
2.53	10.1953
2.535	10.1953
2.54	10.1953
2.545	10.1953
2.55	10.1074
2.555	10.1074
2.56	10.1074
2.565	10.0195
2.57	10.0195
2.575	10.0195
2.58	10.0195
2.585	10.0195
2.59	9.93164
2.595	9.93164
2.6	9.93164
2.605	9.93164
2.61	9.93164
2.615	9.93164
2.62	9.93164
2.625	9.84375
2.63	9.84375
2.635	9.84375
2.64	9.84375
2.645	9.84375
2.65	9.75586
2.655	9.75586
2.66	9.75586
2.665	9.75586
2.67	9.75586
2.675	9.75586
2.68	9.66797
2.685	9.66797
2.69	9.66797
2.695	9.66797
2.7	9.66797
2.705	9.66797
2.71	9.66797
2.715	9.66797
2.72	9.66797
2.725	9.66797
2.73	9.66797
2.735	9.66797
2.74	9.66797
2.745	9.58008
2.75	9.58008
2.755	9.49219
2.76	9.49219
2.765	9.49219
2.77	9.49219
2.775	9.49219
2.78	9.49219
2.785	9.49219
2.79	9.49219
2.795	9.49219
2.8	9.49219
2.805	9.49219
2.81	9.49219
2.815	9.49219
2.82	9.49219
2.825	9.4043
2.83	9.49219
2.835	9.4043
2.84	9.4043
2.845	9.4043
2.85	9.4043
2.855	9.31641
2.86	9.31641
2.865	9.31641
2.87	9.31641
2.875	9.31641
2.88	9.31641
2.885	9.31641
2.89	9.31641
2.895	9.31641
2.9	9.31641
2.905	9.31641
2.91	9.31641
2.915	9.31641
2.92	9.31641
2.925	9.31641
2.93	9.22852
2.935	9.22852
2.94	9.22852
2.945	9.22852
2.95	9.22852
2.955	9.22852
2.96	9.22852
2.965	9.22852
2.97	9.22852
2.975	9.14063
2.98	9.14063
2.985	9.14063
2.99	9.14063
2.995	9.14063
3	9.14063
3.005	9.14063
3.01	9.14063
3.015	9.14063
3.02	9.05273
3.025	9.05273
3.03	9.05273
3.035	9.05273
3.04	9.05273
3.045	9.05273
3.05	9.05273
3.055	9.05273
3.06	8.96484
3.065	8.96484
3.07	8.96484
3.075	8.96484
3.08	8.96484
3.085	8.96484
3.09	8.96484
3.095	8.96484
3.1	8.96484
3.105	8.96484
3.11	8.96484
3.115	8.87695
3.12	8.87695
3.125	8.87695
3.13	8.87695
3.135	8.87695
3.14	8.87695
3.145	8.78906
3.15	8.78906
3.155	8.78906
3.16	8.78906
3.165	8.78906
3.17	8.78906
3.175	8.78906
3.18	8.78906
3.185	8.78906
3.19	8.70117
3.195	8.70117
3.2	8.70117
3.205	8.70117
3.21	8.70117
3.215	8.70117
3.22	8.61328
3.225	8.61328
3.23	8.61328
3.235	8.61328
3.24	8.52539
3.245	8.52539
3.25	8.52539
3.255	8.52539
3.26	8.52539
3.265	8.52539
3.27	8.4375
3.275	8.4375
3.28	8.4375
3.285	8.4375
3.29	8.4375
3.295	8.4375
3.3	8.4375
3.305	8.4375
3.31	8.4375
3.315	8.34961
3.32	8.34961
3.325	8.34961
3.33	8.34961
3.335	8.34961
3.34	8.34961
3.345	8.34961
3.35	8.26172
3.355	8.26172
3.36	8.26172
3.365	8.26172
3.37	8.26172
3.375	8.26172
3.38	8.17383
3.385	8.17383
3.39	8.17383
3.395	8.17383
3.4	8.17383
3.405	8.17383
3.41	8.17383
3.415	8.17383
3.42	8.17383
3.425	8.17383
3.43	8.08594
3.435	8.08594
3.44	8.08594
3.445	8.08594
3.45	8.08594
3.455	8.08594
3.46	8.08594
3.465	8.08594
3.47	8.08594
3.475	8.08594
3.48	7.99805
3.485	7.99805
3.49	7.99805
3.495	7.99805
3.5	7.99805
3.505	7.99805
3.51	7.99805
3.515	7.99805
3.52	7.99805
3.525	7.99805
3.53	7.99805
3.535	7.99805
3.54	7.91016
3.545	7.91016
3.55	7.91016
3.555	7.91016
3.56	7.91016
3.565	7.91016
3.57	7.91016
3.575	7.91016
3.58	7.91016
3.585	7.91016
3.59	7.91016
3.595	7.91016
3.6	7.91016
3.605	7.91016
3.61	7.91016
3.615	7.91016
3.62	7.82227
3.625	7.82227
3.63	7.91016
3.635	7.82227
3.64	7.82227
3.645	7.82227
3.65	7.82227
3.655	7.82227
3.66	7.82227
3.665	7.82227
3.67	7.82227
3.675	7.82227
3.68	7.82227
3.685	7.73437
3.69	7.73437
3.695	7.73437
3.7	7.73437
3.705	7.73437
3.71	7.73437
3.715	7.73437
3.72	7.73437
3.725	7.73437
3.73	7.73437
3.735	7.73437
3.74	7.73437
3.745	7.73437
3.75	7.73437
3.755	7.73437
3.76	7.73437
3.765	7.73437
3.77	7.73437
3.775	7.73437
3.78	7.73437
3.785	7.73437
3.79	7.73437
3.795	7.73437
3.8	7.73437
3.805	7.73437
3.81	7.64648
3.815	7.64648
3.82	7.64648
3.825	7.64648
3.83	7.64648
3.835	7.64648
3.84	7.64648
3.845	7.73437
3.85	7.73437
3.855	7.64648
3.86	7.64648
3.865	7.73437
3.87	7.64648
3.875	7.64648
3.88	7.73437
3.885	7.73437
3.89	7.64648
3.895	7.64648
3.9	7.64648
3.905	7.64648
3.91	7.64648
3.915	7.64648
3.92	7.64648
3.925	7.64648
3.93	7.64648
3.935	7.64648
3.94	7.64648
3.945	7.64648
3.95	7.64648
3.955	7.64648
3.96	7.64648
3.965	7.64648
3.97	7.64648
3.975	7.64648
3.98	7.73437
3.985	7.73437
3.99	7.73437
3.995	7.73437
4	7.73437
4.005	7.73437
4.01	7.73437
4.015	7.73437
4.02	7.73437
4.025	7.73437
4.03	7.73437
4.035	7.73437
4.04	7.73437
4.045	7.73437
4.05	7.73437
4.055	7.73437
4.06	7.73437
4.065	7.73437
4.07	7.73437
4.075	7.73437
4.08	7.73437
4.085	7.73437
4.09	7.73437
4.095	7.73437
4.1	7.82227
4.105	7.82227
4.11	7.82227
4.115	7.82227
4.12	7.82227
4.125	7.82227
4.13	7.82227
4.135	7.82227
4.14	7.82227
4.145	7.82227
4.15	7.82227
4.155	7.82227
4.16	7.82227
4.165	7.82227
4.17	7.82227
4.175	7.82227
4.18	7.82227
4.185	7.82227
4.19	7.82227
4.195	7.91016
4.2	7.91016
4.205	7.82227
4.21	7.91016
4.215	7.91016
4.22	7.91016
4.225	7.91016
4.23	7.91016
4.235	7.91016
4.24	7.91016
4.245	7.91016
4.25	7.91016
4.255	7.91016
4.26	7.91016
4.265	7.91016
4.27	7.91016
4.275	7.91016
4.28	7.91016
4.285	7.91016
4.29	7.91016
4.295	7.91016
4.3	7.91016
4.305	7.91016
4.31	7.91016
4.315	7.91016
4.32	7.91016
4.325	7.91016
4.33	7.91016
4.335	7.91016
4.34	7.91016
4.345	7.91016
4.35	7.91016
4.355	7.91016
4.36	7.91016
4.365	7.91016
4.37	7.91016
4.375	7.91016
4.38	7.91016
4.385	7.91016
4.39	7.91016
4.395	7.91016
4.4	7.91016
4.405	7.91016
4.41	7.91016
4.415	7.91016
4.42	7.91016
4.425	7.91016
4.43	7.91016
4.435	7.91016
4.44	7.91016
4.445	7.91016
4.45	7.91016
4.455	7.91016
4.46	7.91016
4.465	7.91016
4.47	7.91016
4.475	7.91016
4.48	7.91016
4.485	7.91016
4.49	7.91016
4.495	7.91016
4.5	7.91016
4.505	7.91016
4.51	7.91016
4.515	7.91016
4.52	7.91016
4.525	7.91016
4.53	7.91016
4.535	7.91016
4.54	7.91016
4.545	7.91016
4.55	7.91016
4.555	7.91016
4.56	7.91016
4.565	7.91016
4.57	7.91016
4.575	7.91016
4.58	7.91016
4.585	7.91016
4.59	7.91016
4.595	7.91016
4.6	7.91016
4.605	7.91016
4.61	7.91016
4.615	7.91016
4.62	7.91016
4.625	7.91016
4.63	7.91016
4.635	7.91016
4.64	7.99805
4.645	7.99805
4.65	7.91016
4.655	7.91016
4.66	7.91016
4.665	7.91016
4.67	7.91016
4.675	7.91016
4.68	7.91016
4.685	7.91016
4.69	7.91016
4.695	7.91016
4.7	7.91016
4.705	7.91016
4.71	7.99805
4.715	7.99805
4.72	7.99805
4.725	7.99805
4.73	7.99805
4.735	7.99805
4.74	7.99805
4.745	7.99805
4.75	7.99805
4.755	7.99805
4.76	7.99805
4.765	7.99805
4.77	7.99805
4.775	7.99805
4.78	7.99805
4.785	7.99805
4.79	7.99805
4.795	7.99805
4.8	7.99805
4.805	7.99805
4.81	7.99805
4.815	7.99805
4.82	7.99805
4.825	7.99805
4.83	7.99805
4.835	7.99805
4.84	7.99805
4.845	7.99805
4.85	7.99805
4.855	7.99805
4.86	7.99805
4.865	7.99805
4.87	7.99805
4.875	7.99805
4.88	7.99805
4.885	7.99805
4.89	7.99805
4.895	7.99805
4.9	7.99805
4.905	7.99805
4.91	7.99805
4.915	7.99805
4.92	7.99805
4.925	7.99805
4.93	7.99805
4.935	7.99805
4.94	7.99805
4.945	7.99805
4.95	7.99805
4.955	7.99805
4.96	7.99805
4.965	7.99805
4.97	7.99805
4.975	7.99805
4.98	7.99805
4.985	7.99805
4.99	7.99805
4.995	7.99805
5	7.99805
5.005	7.99805
5.01	7.99805
5.015	7.99805
5.02	7.99805
5.025	7.91016
5.03	7.91016
5.035	7.99805
5.04	7.91016
5.045	7.91016
5.05	7.99805
5.055	7.99805
5.06	7.99805
5.065	7.99805
5.07	7.99805
5.075	7.99805
5.08	7.99805
5.085	7.99805
5.09	7.99805
5.095	7.99805
5.1	7.99805
5.105	7.99805
5.11	7.99805
5.115	7.91016
5.12	7.91016
5.125	7.99805
5.13	7.91016
5.135	7.99805
5.14	7.91016
5.145	7.99805
5.15	7.91016
5.155	7.91016
5.16	7.91016
5.165	7.91016
5.17	7.91016
5.175	7.91016
5.18	7.91016
5.185	7.91016
5.19	7.91016
5.195	7.91016
5.2	7.91016
5.205	7.91016
5.21	7.91016
5.215	7.91016
5.22	7.91016
5.225	7.82227
5.23	7.82227
5.235	7.82227
5.24	7.82227
5.245	7.73437
5.25	7.73437
5.255	7.73437
5.26	7.64648
5.265	7.73437
5.27	7.64648
5.275	7.64648
5.28	7.64648
5.285	7.55859
5.29	7.55859
5.295	7.4707
5.3	7.4707
5.305	7.4707
5.31	7.38281
5.315	7.4707
5.32	7.4707
5.325	7.38281
5.33	7.4707
5.335	7.38281
5.34	7.38281
5.345	7.38281
5.35	7.38281
5.355	7.38281
5.36	7.29492
5.365	7.20703
5.37	7.29492
5.375	7.20703
5.38	7.20703
5.385	7.20703
5.39	7.29492
5.395	7.29492
5.4	7.20703
5.405	7.29492
5.41	7.29492
5.415	7.29492
5.42	7.29492
5.425	7.29492
5.43	7.38281
5.435	7.29492
5.44	7.29492
5.445	7.29492
5.45	7.29492
5.455	7.29492
5.46	7.29492
5.465	7.29492
5.47	7.29492
5.475	7.29492
5.48	7.29492
5.485	7.29492
5.49	7.38281
5.495	7.38281
5.5	7.38281
5.505	7.38281
5.51	7.38281
5.515	7.38281
5.52	7.38281
5.525	7.38281
5.53	7.29492
5.535	7.29492
5.54	7.20703
5.545	7.20703
5.55	7.20703
5.555	7.20703
5.56	7.20703
5.565	7.20703
5.57	7.20703
5.575	7.29492
5.58	7.20703
5.585	7.20703
5.59	7.20703
5.595	7.03125
5.6	7.03125
5.605	6.94336
5.61	6.94336
5.615	6.94336
5.62	6.94336
5.625	6.85547
5.63	6.85547
5.635	6.85547
5.64	6.76758
5.645	6.76758
5.65	6.76758
5.655	6.5918
5.66	6.5918
5.665	6.50391
5.67	6.41602
5.675	6.41602
5.68	6.41602
5.685	6.32812
5.69	6.32812
5.695	6.32812
5.7	6.24023
5.705	6.15234
5.71	6.15234
5.715	6.06445
5.72	5.88867
5.725	5.88867
5.73	5.80078
5.735	5.71289
5.74	5.71289
5.745	5.71289
5.75	5.625
5.755	5.625
5.76	5.53711
5.765	5.53711
5.77	5.44922
5.775	5.36133
5.78	5.36133
5.785	5.27344
5.79	5.27344
5.795	5.18555
5.8	5.27344
5.805	5.18555
5.81	5.18555
5.815	5.18555
5.82	5.18555
5.825	5.09766
5.83	5.09766
5.835	5.09766
5.84	4.92188
5.845	5.00977
5.85	4.92188
5.855	4.92188
5.86	4.92188
5.865	5.00977
5.87	5.00977
5.875	5.00977
5.88	5.00977
5.885	5.09766
5.89	5.09766
5.895	5.09766
5.9	5.09766
5.905	5.09766
5.91	5.09766
5.915	5.09766
5.92	5.09766
5.925	5.09766
5.93	5.09766
5.935	5.18555
5.94	5.27344
5.945	5.27344
5.95	5.36133
5.955	5.36133
5.96	5.36133
5.965	5.44922
5.97	5.53711
5.975	5.53711
5.98	5.625
5.985	5.71289
5.99	5.71289
5.995	5.80078
6	5.88867
6.005	5.88867
6.01	5.97656
6.015	6.06445
6.02	6.06445
6.025	6.15234
6.03	6.24023
6.035	6.24023
6.04	6.41602
6.045	6.50391
6.05	6.50391
6.055	6.67969
6.06	6.67969
6.065	6.76758
6.07	6.94336
6.075	7.03125
6.08	7.11914
6.085	7.11914
6.09	7.20703
6.095	7.29492
6.1	7.38281
6.105	7.38281
6.11	7.4707
6.115	7.64648
6.12	7.64648
6.125	7.73437
6.13	7.82227
6.135	7.82227
6.14	7.91016
6.145	7.99805
6.15	8.08594
6.155	8.08594
6.16	8.26172
6.165	8.26172
6.17	8.4375
6.175	8.52539
6.18	8.61328
6.185	8.61328
6.19	8.70117
6.195	8.70117
6.2	8.78906
6.205	8.78906
6.21	8.87695
6.215	8.87695
6.22	8.96484
6.225	8.96484
6.23	9.05273
6.235	9.05273
6.24	9.14063
6.245	9.14063
6.25	9.14063
6.255	9.22852
6.26	9.22852
6.265	9.31641
6.27	9.31641
6.275	9.31641
6.28	9.31641
6.285	9.31641
6.29	9.31641
6.295	9.4043
6.3	9.4043
6.305	9.4043
6.31	9.4043
6.315	9.4043
6.32	9.4043
6.325	9.4043
6.33	9.4043
6.335	9.4043
6.34	9.4043
6.345	9.4043
6.35	9.4043
6.355	9.4043
6.36	9.4043
6.365	9.4043
6.37	9.4043
6.375	9.4043
6.38	9.4043
6.385	9.4043
6.39	9.4043
6.395	9.4043
6.4	9.4043
6.405	9.31641
6.41	9.31641
6.415	9.31641
6.42	9.31641
6.425	9.31641
6.43	9.31641
6.435	9.31641
6.44	9.31641
6.445	9.31641
6.45	9.31641
6.455	9.22852
6.46	9.22852
6.465	9.22852
6.47	9.22852
6.475	9.22852
6.48	9.22852
6.485	9.22852
6.49	9.14063
6.495	9.14063
6.5	9.14063
6.505	9.14063
6.51	9.14063
6.515	9.14063
6.52	9.14063
6.525	9.14063
6.53	9.05273
6.535	9.05273
6.54	9.05273
6.545	9.05273
6.55	9.05273
6.555	9.05273
6.56	9.05273
6.565	9.05273
6.57	9.05273
6.575	9.05273
6.58	9.05273
6.585	9.05273
6.59	9.05273
6.595	9.05273
6.6	9.05273
6.605	9.05273
6.61	9.05273
6.615	9.05273
6.62	9.05273
6.625	9.05273
6.63	9.05273
6.635	9.05273
6.64	9.05273
6.645	9.05273
6.65	9.14063
6.655	9.14063
6.66	9.14063
6.665	9.14063
6.67	9.14063
6.675	9.14063
6.68	9.14063
6.685	9.14063
6.69	9.22852
6.695	9.22852
6.7	9.14063
6.705	9.22852
6.71	9.22852
6.715	9.22852
6.72	9.22852
6.725	9.22852
6.73	9.22852
6.735	9.22852
6.74	9.22852
6.745	9.22852
6.75	9.22852
6.755	9.31641
6.76	9.31641
6.765	9.31641
6.77	9.31641
6.775	9.31641
6.78	9.31641
6.785	9.31641
6.79	9.31641
6.795	9.31641
6.8	9.31641
6.805	9.31641
6.81	9.31641
6.815	9.31641
6.82	9.31641
6.825	9.31641
6.83	9.31641
6.835	9.31641
6.84	9.31641
6.845	9.31641
6.85	9.4043
6.855	9.4043
6.86	9.4043
6.865	9.4043
6.87	9.4043
6.875	9.4043
6.88	9.4043
6.885	9.4043
6.89	9.4043
6.895	9.4043
6.9	9.4043
6.905	9.4043
6.91	9.4043
6.915	9.4043
6.92	9.4043
6.925	9.4043
6.93	9.4043
6.935	9.31641
6.94	9.31641
6.945	9.31641
6.95	9.31641
6.955	9.31641
6.96	9.31641
6.965	9.31641
6.97	9.31641
6.975	9.31641
6.98	9.31641
6.985	9.31641
6.99	9.31641
6.995	9.22852
7	9.22852
7.005	9.22852
7.01	9.22852
7.015	9.22852
7.02	9.22852
7.025	9.22852
7.03	9.22852
7.035	9.22852
7.04	9.22852
7.045	9.22852
7.05	9.14063
7.055	9.14063
7.06	9.14063
7.065	9.14063
7.07	9.14063
7.075	9.14063
7.08	9.14063
7.085	9.14063
7.09	9.05273
7.095	9.05273
7.1	9.05273
7.105	9.05273
7.11	9.05273
7.115	9.05273
7.12	8.96484
7.125	8.96484
7.13	8.96484
7.135	8.96484
7.14	8.96484
7.145	8.96484
7.15	8.96484
7.155	8.96484
7.16	8.87695
7.165	8.87695
7.17	8.87695
7.175	8.87695
7.18	8.87695
7.185	8.87695
7.19	8.87695
7.195	8.78906
7.2	8.78906
7.205	8.78906
7.21	8.78906
7.215	8.78906
7.22	8.78906
7.225	8.78906
7.23	8.78906
7.235	8.78906
7.24	8.70117
7.245	8.70117
7.25	8.70117
7.255	8.70117
7.26	8.70117
7.265	8.70117
7.27	8.70117
7.275	8.70117
7.28	8.70117
7.285	8.61328
7.29	8.61328
7.295	8.61328
7.3	8.61328
7.305	8.61328
7.31	8.61328
7.315	8.61328
7.32	8.61328
7.325	8.61328
7.33	8.61328
7.335	8.61328
7.34	8.61328
7.345	8.61328
7.35	8.61328
7.355	8.52539
7.36	8.61328
7.365	8.52539
7.37	8.52539
7.375	8.52539
7.38	8.52539
7.385	8.52539
7.39	8.52539
7.395	8.52539
7.4	8.52539
7.405	8.52539
7.41	8.52539
7.415	8.52539
7.42	8.52539
7.425	8.4375
7.43	8.4375
7.435	8.4375
7.44	8.4375
7.445	8.4375
7.45	8.4375
7.455	8.4375
7.46	8.4375
7.465	8.4375
7.47	8.4375
7.475	8.4375
7.48	8.4375
7.485	8.4375
7.49	8.4375
7.495	8.4375
7.5	8.4375
7.505	8.4375
7.51	8.4375
7.515	8.4375
7.52	8.4375
7.525	8.4375
7.53	8.4375
7.535	8.4375
7.54	8.4375
7.545	8.34961
7.55	8.34961
7.555	8.34961
7.56	8.34961
7.565	8.34961
7.57	8.34961
7.575	8.34961
7.58	8.34961
7.585	8.34961
7.59	8.34961
7.595	8.34961
7.6	8.34961
7.605	8.34961
7.61	8.34961
7.615	8.34961
7.62	8.34961
7.625	8.26172
7.63	8.34961
7.635	8.26172
7.64	8.26172
7.645	8.26172
7.65	8.26172
7.655	8.26172
7.66	8.26172
7.665	8.26172
7.67	8.26172
7.675	8.26172
7.68	8.26172
7.685	8.26172
7.69	8.26172
7.695	8.26172
7.7	8.17383
7.705	8.17383
7.71	8.17383
7.715	8.17383
7.72	8.17383
7.725	8.17383
7.73	8.17383
7.735	8.08594
7.74	8.08594
7.745	8.08594
7.75	8.08594
7.755	8.08594
7.76	8.08594
7.765	8.08594
7.77	8.08594
7.775	8.08594
7.78	8.08594
7.785	7.99805
7.79	7.99805
7.795	7.99805
7.8	7.99805
7.805	7.99805
7.81	7.99805
7.815	7.99805
7.82	7.99805
7.825	7.99805
7.83	7.99805
7.835	7.99805
7.84	7.99805
7.845	7.91016
7.85	7.91016
7.855	7.91016
7.86	7.91016
7.865	7.91016
7.87	7.91016
7.875	7.91016
7.88	7.91016
7.885	7.91016
7.89	7.91016
7.895	7.91016
7.9	7.91016
7.905	7.82227
7.91	7.91016
7.915	7.82227
7.92	7.82227
7.925	7.82227
7.93	7.82227
7.935	7.82227
7.94	7.82227
7.945	7.82227
7.95	7.82227
7.955	7.82227
7.96	7.82227
7.965	7.82227
7.97	7.82227
7.975	7.82227
7.98	7.82227
7.985	7.82227
7.99	7.82227
7.995	7.82227
8	7.82227
8.005	7.82227
8.01	7.82227
8.015	7.82227
8.02	7.73437
8.025	7.73437
8.03	7.82227
8.035	7.73437
8.04	7.73437
8.045	7.73437
8.05	7.73437
8.055	7.73437
8.06	7.73437
8.065	7.73437
8.07	7.73437
8.075	7.73437
8.08	7.73437
8.085	7.73437
8.09	7.73437
8.095	7.73437
8.1	7.73437
8.105	7.73437
8.11	7.73437
8.115	7.73437
8.12	7.82227
8.125	7.73437
8.13	7.82227
8.135	7.82227
8.14	7.73437
8.145	7.82227
8.15	7.82227
8.155	7.82227
8.16	7.82227
8.165	7.82227
8.17	7.82227
8.175	7.82227
8.18	7.82227
8.185	7.82227
8.19	7.82227
8.195	7.82227
8.2	7.82227
8.205	7.82227
8.21	7.82227
8.215	7.82227
8.22	7.82227
8.225	7.82227
8.23	7.82227
8.235	7.82227
8.24	7.82227
8.245	7.82227
8.25	7.82227
8.255	7.82227
8.26	7.82227
8.265	7.82227
8.27	7.82227
8.275	7.82227
8.28	7.82227
8.285	7.82227
8.29	7.82227
8.295	7.82227
8.3	7.82227
8.305	7.82227
8.31	7.82227
8.315	7.82227
8.32	7.82227
8.325	7.82227
8.33	7.82227
8.335	7.82227
8.34	7.82227
8.345	7.82227
8.35	7.82227
8.355	7.82227
8.36	7.82227
8.365	7.82227
8.37	7.82227
8.375	7.82227
8.38	7.82227
8.385	7.82227
8.39	7.82227
8.395	7.82227
8.4	7.82227
8.405	7.82227
8.41	7.82227
8.415	7.82227
8.42	7.82227
8.425	7.82227
8.43	7.82227
8.435	7.82227
8.44	7.82227
8.445	7.82227
8.45	7.82227
8.455	7.82227
8.46	7.82227
8.465	7.82227
8.47	7.82227
8.475	7.82227
8.48	7.82227
8.485	7.82227
8.49	7.82227
8.495	7.82227
8.5	7.82227
8.505	7.82227
8.51	7.82227
8.515	7.82227
8.52	7.82227
8.525	7.82227
8.53	7.82227
8.535	7.82227
8.54	7.82227
8.545	7.82227
8.55	7.82227
8.555	7.82227
8.56	7.82227
8.565	7.82227
8.57	7.82227
8.575	7.82227
8.58	7.82227
8.585	7.82227
8.59	7.82227
8.595	7.82227
8.6	7.82227
8.605	7.82227
8.61	7.82227
8.615	7.82227
8.62	7.82227
8.625	7.82227
8.63	7.82227
8.635	7.82227
8.64	7.73437
8.645	7.82227
8.65	7.82227
8.655	7.82227
8.66	7.82227
8.665	7.82227
8.67	7.82227
8.675	7.82227
8.68	7.82227
8.685	7.82227
8.69	7.82227
8.695	7.82227
8.7	7.82227
8.705	7.82227
8.71	7.82227
8.715	7.82227
8.72	7.82227
8.725	7.82227
8.73	7.82227
8.735	7.82227
8.74	7.82227
8.745	7.82227
8.75	7.82227
8.755	7.82227
8.76	7.91016
8.765	7.91016
8.77	7.91016
8.775	7.91016
8.78	7.91016
8.785	7.91016
8.79	7.91016
8.795	7.91016
8.8	7.91016
8.805	7.91016
8.81	7.91016
8.815	7.91016
8.82	7.91016
8.825	7.91016
8.83	7.91016
8.835	7.91016
8.84	7.91016
8.845	7.91016
8.85	7.91016
8.855	7.91016
8.86	7.91016
8.865	7.91016
8.87	7.91016
8.875	7.91016
8.88	7.99805
8.885	7.99805
8.89	7.99805
8.895	7.99805
8.9	7.99805
8.905	7.99805
8.91	7.99805
8.915	7.99805
8.92	7.99805
8.925	7.99805
8.93	7.99805
8.935	7.99805
8.94	7.99805
8.945	7.99805
8.95	7.99805
8.955	7.99805
8.96	7.99805
8.965	7.99805
8.97	7.99805
8.975	7.99805
8.98	7.99805
8.985	7.99805
8.99	7.99805
8.995	8.08594
9	8.08594
9.005	7.99805
9.01	8.08594
9.015	8.08594
9.02	8.08594
9.025	8.08594
9.03	8.08594
9.035	8.08594
9.04	8.08594
9.045	8.08594
9.05	8.08594
9.055	8.08594
9.06	8.08594
9.065	8.08594
9.07	8.08594
9.075	8.08594
9.08	8.08594
9.085	8.08594
9.09	8.08594
9.095	8.08594
9.1	8.08594
9.105	8.08594
9.11	8.08594
9.115	8.08594
9.12	8.08594
9.125	8.08594
9.13	8.08594
9.135	8.08594
9.14	8.08594
9.145	8.08594
9.15	8.08594
9.155	8.08594
9.16	8.08594
9.165	8.08594
9.17	8.08594
9.175	8.08594
9.18	8.08594
9.185	8.08594
9.19	8.08594
9.195	8.08594
9.2	8.08594
9.205	8.08594
9.21	8.08594
9.215	8.08594
9.22	8.08594
9.225	8.08594
9.23	8.08594
9.235	8.08594
9.24	8.08594
9.245	8.08594
9.25	8.08594
9.255	8.08594
9.26	8.08594
9.265	7.99805
9.27	8.08594
9.275	8.08594
9.28	7.99805
9.285	8.08594
9.29	7.99805
9.295	7.99805
9.3	7.99805
9.305	7.99805
9.31	7.99805
9.315	7.99805
9.32	7.99805
9.325	7.99805
9.33	7.99805
9.335	7.99805
9.34	7.99805
9.345	7.99805
9.35	7.99805
9.355	7.99805
9.36	7.99805
9.365	7.99805
9.37	7.99805
9.375	7.99805
9.38	7.99805
9.385	7.99805
9.39	7.99805
9.395	7.99805
9.4	7.99805
9.405	7.99805
9.41	7.99805
9.415	7.99805
9.42	7.99805
9.425	7.99805
9.43	7.99805
9.435	7.99805
9.44	7.99805
9.445	7.99805
9.45	7.99805
9.455	7.99805
9.46	7.99805
9.465	7.99805
9.47	7.99805
9.475	7.99805
9.48	7.99805
9.485	7.99805
9.49	7.99805
9.495	7.99805
9.5	7.99805
9.505	7.99805
9.51	7.99805
9.515	7.99805
9.52	7.99805
9.525	7.99805
9.53	7.99805
9.535	7.99805
9.54	7.99805
9.545	7.99805
9.55	7.99805
9.555	7.99805
9.56	7.91016
9.565	7.99805
9.57	7.99805
9.575	7.91016
9.58	7.99805
9.585	7.91016
9.59	7.99805
9.595	7.99805
9.6	7.91016
9.605	7.99805
9.61	7.99805
9.615	7.91016
9.62	7.99805
9.625	7.91016
9.63	7.99805
9.635	7.99805
9.64	7.91016
9.645	7.99805
9.65	7.91016
9.655	7.91016
9.66	7.91016
9.665	7.91016
9.67	7.91016
9.675	7.91016
9.68	7.91016
9.685	7.91016
9.69	7.91016
9.695	7.99805
9.7	7.99805
9.705	7.91016
9.71	7.99805
9.715	7.91016
9.72	7.99805
9.725	7.99805
9.73	7.99805
9.735	7.99805
9.74	7.99805
9.745	7.99805
9.75	7.99805
9.755	7.99805
9.76	7.99805
9.765	7.99805
9.77	7.99805
9.775	7.99805
9.78	7.99805
9.785	7.99805
9.79	7.99805
9.795	7.99805
9.8	7.99805
9.805	7.99805
9.81	7.99805
9.815	7.99805
9.82	7.99805
9.825	7.99805
9.83	7.99805
9.835	7.99805
9.84	7.99805
9.845	7.99805
9.85	7.99805
9.855	7.99805
9.86	7.99805
9.865	7.99805
9.87	7.99805
9.875	7.99805
9.88	7.99805
9.885	7.99805
9.89	7.99805
9.895	7.99805
9.9	7.99805
9.905	7.99805
9.91	7.99805
9.915	7.99805
9.92	7.99805
9.925	7.99805
9.93	7.99805
9.935	7.99805
9.94	7.99805
9.945	7.99805
9.95	7.99805
9.955	7.99805
9.96	7.99805
9.965	7.99805
9.97	7.99805
9.975	7.99805
9.98	7.91016
9.985	7.91016
9.99	7.91016
9.995	7.91016
10	7.91016
10.005	7.91016
10.01	7.99805
10.015	7.99805
10.02	7.99805
10.025	7.99805
10.03	7.99805
10.035	7.99805
10.04	7.99805
10.045	8.08594
10.05	8.08594
10.055	7.99805
10.06	7.99805
10.065	8.08594
10.07	7.99805
10.075	7.99805
10.08	7.99805
10.085	7.99805
10.09	7.99805
10.095	7.99805
10.1	8.08594
10.105	7.99805
10.11	7.99805
10.115	7.99805
10.12	7.99805
10.125	7.99805
10.13	7.99805
10.135	7.99805
10.14	7.91016
10.145	7.91016
10.15	7.91016
10.155	7.91016
10.16	7.91016
10.165	7.91016
10.17	7.82227
10.175	7.82227
10.18	7.82227
10.185	7.73437
10.19	7.73437
10.195	7.73437
10.2	7.64648
10.205	7.64648
10.21	7.64648
10.215	7.55859
10.22	7.55859
10.225	7.55859
10.23	7.4707
10.235	7.38281
10.24	7.38281
10.245	7.29492
10.25	7.29492
10.255	7.29492
10.26	7.20703
10.265	7.11914
10.27	7.03125
10.275	7.03125
10.28	6.85547
10.285	6.85547
10.29	6.85547
10.295	6.67969
10.3	6.67969
10.305	6.67969
10.31	6.5918
10.315	6.5918
10.32	6.50391
10.325	6.41602
10.33	6.32812
10.335	6.32812
10.34	6.24023
10.345	6.15234
10.35	6.15234
10.355	6.15234
10.36	6.06445
10.365	6.06445
10.37	5.97656
10.375	5.88867
10.38	5.88867
10.385	5.80078
10.39	5.80078
10.395	5.71289
10.4	5.71289
10.405	5.71289
10.41	5.625
10.415	5.625
10.42	5.625
10.425	5.625
10.43	5.625
10.435	5.53711
10.44	5.53711
10.445	5.53711
10.45	5.53711
10.455	5.53711
10.46	5.53711
10.465	5.53711
10.47	5.53711
10.475	5.625
10.48	5.625
10.485	5.625
10.49	5.625
10.495	5.71289
10.5	5.71289
10.505	5.80078
10.51	5.80078
10.515	5.80078
10.52	5.88867
10.525	5.97656
10.53	5.97656
10.535	6.06445
10.54	6.24023
10.545	6.24023
10.55	6.32812
10.555	6.50391
10.56	6.5918
10.565	6.76758
10.57	6.85547
10.575	6.85547
10.58	7.11914
10.585	7.20703
10.59	7.20703
10.595	7.4707
10.6	7.55859
10.605	7.64648
10.61	7.73437
10.615	7.73437
10.62	7.91016
10.625	7.91016
10.63	7.99805
10.635	8.17383
10.64	8.17383
10.645	8.26172
10.65	8.4375
10.655	8.4375
10.66	8.61328
10.665	8.70117
10.67	8.70117
10.675	8.78906
10.68	8.78906
10.685	8.78906
10.69	8.78906
10.695	8.87695
10.7	8.87695
10.705	8.96484
10.71	8.96484
10.715	9.05273
10.72	9.05273
10.725	9.05273
10.73	9.05273
10.735	9.14063
10.74	9.14063
10.745	9.14063
10.75	9.14063
10.755	9.14063
10.76	9.05273
10.765	9.05273
10.77	9.05273
10.775	9.05273
10.78	9.05273
10.785	9.05273
10.79	9.05273
10.795	9.05273
10.8	8.96484
10.805	8.96484
10.81	8.96484
10.815	8.96484
10.82	8.87695
10.825	8.87695
10.83	8.87695
10.835	8.78906
10.84	8.78906
10.845	8.70117
10.85	8.70117
10.855	8.61328
10.86	8.61328
10.865	8.61328
10.87	8.52539
10.875	8.52539
10.88	8.52539
10.885	8.4375
10.89	8.52539
10.895	8.4375
10.9	8.4375
10.905	8.34961
10.91	8.26172
10.915	8.26172
10.92	8.26172
10.925	8.17383
10.93	8.08594
10.935	8.08594
10.94	7.99805
10.945	7.99805
10.95	7.99805
10.955	7.91016
10.96	7.91016
10.965	7.82227
10.97	7.82227
10.975	7.73437
10.98	7.73437
10.985	7.73437
10.99	7.64648
10.995	7.55859
11	7.55859
11.005	7.55859
11.01	7.55859
11.015	7.55859
11.02	7.4707
11.025	7.4707
11.03	7.4707
11.035	7.4707
11.04	7.4707
11.045	7.4707
11.05	7.38281
11.055	7.38281
11.06	7.38281
11.065	7.38281
11.07	7.29492
11.075	7.29492
11.08	7.29492
11.085	7.29492
11.09	7.29492
11.095	7.29492
11.1	7.29492
11.105	7.29492
11.11	7.29492
11.115	7.29492
11.12	7.29492
11.125	7.29492
11.13	7.38281
11.135	7.38281
11.14	7.38281
11.145	7.38281
11.15	7.38281
11.155	7.38281
11.16	7.38281
11.165	7.38281
11.17	7.38281
11.175	7.38281
11.18	7.4707
11.185	7.4707
11.19	7.4707
11.195	7.55859
11.2	7.55859
11.205	7.55859
11.21	7.55859
11.215	7.55859
11.22	7.55859
11.225	7.55859
11.23	7.64648
11.235	7.64648
11.24	7.64648
11.245	7.64648
11.25	7.64648
11.255	7.73437
11.26	7.73437
11.265	7.73437
11.27	7.73437
11.275	7.73437
11.28	7.82227
11.285	7.82227
11.29	7.82227
11.295	7.91016
11.3	7.91016
11.305	7.91016
11.31	7.91016
11.315	7.91016
11.32	7.99805
11.325	7.99805
11.33	7.99805
11.335	7.99805
11.34	8.08594
11.345	8.08594
11.35	8.08594
11.355	8.17383
11.36	8.17383
11.365	8.17383
11.37	8.17383
11.375	8.17383
11.38	8.17383
11.385	8.17383
11.39	8.17383
11.395	8.17383
11.4	8.17383
11.405	8.26172
11.41	8.26172
11.415	8.26172
11.42	8.26172
11.425	8.26172
11.43	8.26172
11.435	8.26172
11.44	8.26172
11.445	8.26172
11.45	8.26172
11.455	8.26172
11.46	8.26172
11.465	8.26172
11.47	8.26172
11.475	8.26172
11.48	8.26172
11.485	8.26172
11.49	8.26172
11.495	8.26172
11.5	8.26172
11.505	8.26172
11.51	8.17383
11.515	8.17383
11.52	8.17383
11.525	8.17383
11.53	8.17383
11.535	8.17383
11.54	8.08594
11.545	8.08594
11.55	8.08594
11.555	8.08594
11.56	8.08594
11.565	8.08594
11.57	8.08594
11.575	8.08594
11.58	7.99805
11.585	7.99805
11.59	7.99805
11.595	7.99805
11.6	7.99805
11.605	7.99805
11.61	7.99805
11.615	7.91016
11.62	7.91016
11.625	7.91016
11.63	7.91016
11.635	7.91016
11.64	7.91016
11.645	7.82227
11.65	7.91016
11.655	7.91016
11.66	7.82227
11.665	7.82227
11.67	7.82227
11.675	7.73437
11.68	7.73437
11.685	7.73437
11.69	7.73437
11.695	7.73437
11.7	7.73437
11.705	7.73437
11.71	7.64648
11.715	7.64648
11.72	7.64648
11.725	7.64648
11.73	7.64648
11.735	7.64648
11.74	7.55859
11.745	7.55859
11.75	7.55859
11.755	7.55859
11.76	7.55859
11.765	7.55859
11.77	7.55859
11.775	7.55859
11.78	7.55859
11.785	7.4707
11.79	7.4707
11.795	7.4707
11.8	7.38281
11.805	7.38281
11.81	7.38281
11.815	7.38281
11.82	7.38281
11.825	7.38281
11.83	7.38281
11.835	7.38281
11.84	7.38281
11.845	7.38281
11.85	7.38281
11.855	7.38281
11.86	7.38281
11.865	7.38281
11.87	7.38281
11.875	7.29492
11.88	7.29492
11.885	7.29492
11.89	7.29492
11.895	7.29492
11.9	7.29492
11.905	7.29492
11.91	7.29492
11.915	7.29492
11.92	7.20703
11.925	7.20703
11.93	7.20703
11.935	7.29492
11.94	7.29492
11.945	7.29492
11.95	7.29492
11.955	7.29492
11.96	7.20703
11.965	7.20703
11.97	7.20703
11.975	7.20703
11.98	7.20703
11.985	7.20703
11.99	7.20703
11.995	7.20703
12	7.20703
12.005	7.20703
12.01	7.20703
12.015	7.20703
12.02	7.20703
12.025	7.20703
12.03	7.20703
12.035	7.20703
12.04	7.20703
12.045	7.20703
12.05	7.20703
12.055	7.20703
12.06	7.20703
12.065	7.20703
12.07	7.20703
12.075	7.20703
12.08	7.20703
12.085	7.20703
12.09	7.20703
12.095	7.20703
12.1	7.20703
12.105	7.20703
12.11	7.20703
12.115	7.20703
12.12	7.20703
12.125	7.29492
12.13	7.29492
12.135	7.29492
12.14	7.29492
12.145	7.29492
12.15	7.29492
12.155	7.29492
12.16	7.29492
12.165	7.29492
12.17	7.29492
12.175	7.29492
12.18	7.20703
12.185	7.20703
12.19	7.20703
12.195	7.20703
12.2	7.29492
12.205	7.29492
12.21	7.29492
12.215	7.29492
12.22	7.29492
12.225	7.29492
12.23	7.29492
12.235	7.29492
12.24	7.38281
12.245	7.38281
12.25	7.38281
12.255	7.38281
12.26	7.38281
12.265	7.38281
12.27	7.29492
12.275	7.29492
12.28	7.29492
12.285	7.29492
12.29	7.29492
12.295	7.29492
12.3	7.38281
12.305	7.38281
12.31	7.38281
12.315	7.38281
12.32	7.38281
12.325	7.38281
12.33	7.38281
12.335	7.38281
12.34	7.38281
12.345	7.38281
12.35	7.38281
12.355	7.4707
12.36	7.38281
12.365	7.38281
12.37	7.38281
12.375	7.38281
12.38	7.38281
12.385	7.38281
12.39	7.38281
12.395	7.38281
12.4	7.38281
12.405	7.38281
12.41	7.38281
12.415	7.4707
12.42	7.4707
12.425	7.4707
12.43	7.4707
12.435	7.4707
12.44	7.4707
12.445	7.4707
12.45	7.4707
12.455	7.4707
12.46	7.4707
12.465	7.4707
12.47	7.4707
12.475	7.4707
12.48	7.4707
12.485	7.4707
12.49	7.4707
12.495	7.4707
12.5	7.4707
12.505	7.4707
12.51	7.4707
12.515	7.4707
12.52	7.4707
12.525	7.4707
12.53	7.4707
12.535	7.4707
12.54	7.4707
12.545	7.4707
12.55	7.4707
12.555	7.4707
12.56	7.4707
12.565	7.4707
12.57	7.38281
12.575	7.38281
12.58	7.38281
12.585	7.38281
12.59	7.4707
12.595	7.4707
12.6	7.4707
12.605	7.4707
12.61	7.4707
12.615	7.4707
12.62	7.4707
12.625	7.4707
12.63	7.4707
12.635	7.4707
12.64	7.4707
12.645	7.4707
12.65	7.4707
12.655	7.4707
12.66	7.38281
12.665	7.38281
12.67	7.38281
12.675	7.38281
12.68	7.4707
12.685	7.4707
12.69	7.4707
12.695	7.55859
12.7	7.4707
12.705	7.55859
12.71	7.4707
12.715	7.4707
12.72	7.4707
12.725	7.4707
12.73	7.4707
12.735	7.4707
12.74	7.4707
12.745	7.4707
12.75	7.4707
12.755	7.4707
12.76	7.4707
12.765	7.4707
12.77	7.4707
12.775	7.4707
12.78	7.4707
12.785	7.4707
12.79	7.4707
12.795	7.4707
12.8	7.55859
12.805	7.4707
12.81	7.4707
12.815	7.4707
12.82	7.4707
12.825	7.4707
12.83	7.4707
12.835	7.4707
12.84	7.4707
12.845	7.4707
12.85	7.4707
12.855	7.4707
12.86	7.4707
12.865	7.4707
12.87	7.4707
12.875	7.4707
12.88	7.4707
12.885	7.4707
12.89	7.4707
12.895	7.4707
12.9	7.4707
12.905	7.4707
12.91	7.4707
12.915	7.4707
12.92	7.4707
12.925	7.4707
12.93	7.4707
12.935	7.4707
12.94	7.4707
12.945	7.4707
12.95	7.4707
12.955	7.4707
12.96	7.4707
12.965	7.4707
12.97	7.4707
12.975	7.4707
12.98	7.4707
12.985	7.4707
12.99	7.4707
12.995	7.4707
13	7.4707
13.005	7.4707
13.01	7.4707
13.015	7.4707
13.02	7.4707
13.025	7.4707
13.03	7.4707
13.035	7.4707
13.04	7.4707
13.045	7.4707
13.05	7.4707
13.055	7.4707
13.06	7.4707
13.065	7.4707
13.07	7.4707
13.075	7.4707
13.08	7.4707
13.085	7.4707
13.09	7.4707
13.095	7.4707
13.1	7.4707
13.105	7.4707
13.11	7.4707
13.115	7.4707
13.12	7.4707
13.125	7.4707
13.13	7.4707
13.135	7.4707
13.14	7.4707
13.145	7.4707
13.15	7.55859
13.155	7.55859
13.16	7.55859
13.165	7.55859
13.17	7.55859
13.175	7.55859
13.18	7.55859
13.185	7.55859
13.19	7.55859
13.195	7.55859
13.2	7.55859
13.205	7.55859
13.21	7.55859
13.215	7.55859
13.22	7.55859
13.225	7.55859
13.23	7.55859
13.235	7.55859
13.24	7.55859
13.245	7.64648
13.25	7.64648
13.255	7.55859
13.26	7.64648
13.265	7.64648
13.27	7.64648
13.275	7.64648
13.28	7.64648
13.285	7.64648
13.29	7.64648
13.295	7.64648
13.3	7.64648
13.305	7.64648
13.31	7.64648
13.315	7.64648
13.32	7.64648
13.325	7.64648
13.33	7.64648
13.335	7.64648
13.34	7.73437
13.345	7.73437
13.35	7.73437
13.355	7.73437
13.36	7.73437
13.365	7.73437
13.37	7.73437
13.375	7.73437
13.38	7.73437
13.385	7.73437
13.39	7.73437
13.395	7.73437
13.4	7.73437
13.405	7.73437
13.41	7.73437
13.415	7.73437
13.42	7.82227
13.425	7.82227
13.43	7.82227
13.435	7.82227
13.44	7.82227
13.445	7.82227
13.45	7.82227
13.455	7.82227
13.46	7.82227
13.465	7.82227
13.47	7.82227
13.475	7.82227
13.48	7.82227
13.485	7.82227
13.49	7.82227
13.495	7.82227
13.5	7.91016
13.505	7.91016
13.51	7.91016
13.515	7.91016
13.52	7.91016
13.525	7.91016
13.53	7.91016
13.535	7.91016
13.54	7.91016
13.545	7.91016
13.55	7.91016
13.555	7.91016
13.56	7.91016
13.565	7.91016
13.57	7.91016
13.575	7.91016
13.58	7.91016
13.585	7.91016
13.59	7.91016
13.595	7.99805
13.6	7.99805
13.605	7.99805
13.61	7.99805
13.615	7.99805
13.62	7.99805
13.625	7.99805
13.63	7.99805
13.635	7.99805
13.64	7.99805
13.645	7.99805
13.65	7.99805
13.655	7.99805
13.66	7.99805
13.665	7.99805
13.67	7.99805
13.675	7.99805
13.68	7.99805
13.685	7.99805
13.69	8.08594
13.695	8.08594
13.7	8.08594
13.705	8.08594
13.71	8.08594
13.715	8.08594
13.72	8.08594
13.725	8.08594
13.73	8.08594
13.735	8.08594
13.74	8.08594
13.745	8.08594
13.75	8.08594
13.755	8.08594
13.76	8.08594
13.765	8.08594
13.77	8.08594
13.775	8.08594
13.78	8.17383
13.785	8.08594
13.79	8.17383
13.795	8.17383
13.8	8.17383
13.805	8.17383
13.81	8.17383
13.815	8.17383
13.82	8.17383
13.825	8.17383
13.83	8.17383
13.835	8.17383
13.84	8.17383
13.845	8.17383
13.85	8.17383
13.855	8.17383
13.86	8.17383
13.865	8.17383
13.87	8.17383
13.875	8.17383
13.88	8.17383
13.885	8.26172
13.89	8.26172
13.895	8.26172
13.9	8.26172
13.905	8.26172
13.91	8.26172
13.915	8.26172
13.92	8.26172
13.925	8.26172
13.93	8.26172
13.935	8.26172
13.94	8.26172
13.945	8.26172
13.95	8.26172
13.955	8.26172
13.96	8.26172
13.965	8.26172
13.97	8.26172
13.975	8.26172
13.98	8.26172
13.985	8.26172
13.99	8.26172
13.995	8.26172
14	8.26172
14.005	8.26172
14.01	8.26172
14.015	8.26172
14.02	8.26172
14.025	8.26172
14.03	8.26172
14.035	8.26172
14.04	8.26172
14.045	8.26172
14.05	8.26172
14.055	8.26172
14.06	8.26172
14.065	8.26172
14.07	8.26172
14.075	8.26172
14.08	8.26172
14.085	8.26172
14.09	8.26172
14.095	8.26172
14.1	8.26172
14.105	8.26172
14.11	8.17383
14.115	8.26172
14.12	8.17383
14.125	8.17383
14.13	8.17383
14.135	8.17383
14.14	8.17383
14.145	8.17383
14.15	8.17383
14.155	8.17383
14.16	8.17383
14.165	8.17383
14.17	8.17383
14.175	8.17383
14.18	8.17383
14.185	8.17383
14.19	8.17383
14.195	8.17383
14.2	8.17383
14.205	8.08594
14.21	8.08594
14.215	8.08594
14.22	8.08594
14.225	8.08594
14.23	8.08594
14.235	8.08594
14.24	8.08594
14.245	8.08594
14.25	8.08594
14.255	8.08594
14.26	8.08594
14.265	8.08594
14.27	8.08594
14.275	8.08594
14.28	8.08594
14.285	8.08594
14.29	8.08594
14.295	8.08594
14.3	8.08594
14.305	8.08594
14.31	8.08594
14.315	7.99805
14.32	7.99805
14.325	7.99805
14.33	7.99805
14.335	7.99805
14.34	7.99805
14.345	7.99805
14.35	7.99805
14.355	7.99805
14.36	8.08594
14.365	7.99805
14.37	8.08594
14.375	8.08594
14.38	8.08594
14.385	8.08594
14.39	8.08594
14.395	8.08594
14.4	7.99805
14.405	7.99805
14.41	7.99805
14.415	7.99805
14.42	7.99805
14.425	7.99805
14.43	7.99805
14.435	7.99805
14.44	7.99805
14.445	8.08594
14.45	8.08594
14.455	8.08594
14.46	8.08594
14.465	8.08594
14.47	8.08594
14.475	8.08594
14.48	8.08594
14.485	8.08594
14.49	8.08594
14.495	8.08594
14.5	8.08594
14.505	8.08594
14.51	8.08594
14.515	8.08594
14.52	8.08594
14.525	8.08594
14.53	8.08594
14.535	8.08594
14.54	8.08594
14.545	8.08594
14.55	8.08594
14.555	8.17383
14.56	8.17383
14.565	8.17383
14.57	8.17383
14.575	8.17383
14.58	8.17383
14.585	8.17383
14.59	8.17383
14.595	8.17383
14.6	8.17383
14.605	8.17383
14.61	8.17383
14.615	8.17383
14.62	8.17383
14.625	8.17383
14.63	8.17383
14.635	8.17383
14.64	8.17383
14.645	8.17383
14.65	8.17383
14.655	8.17383
14.66	8.17383
14.665	8.17383
14.67	8.17383
14.675	8.17383
14.68	8.17383
14.685	8.17383
14.69	8.17383
14.695	8.17383
14.7	8.17383
14.705	8.17383
14.71	8.17383
14.715	8.17383
14.72	8.17383
14.725	8.17383
14.73	8.17383
14.735	8.17383
14.74	8.17383
14.745	8.17383
14.75	8.17383
14.755	8.17383
14.76	8.17383
14.765	8.17383
14.77	8.17383
14.775	8.17383
14.78	8.17383
14.785	8.17383
14.79	8.17383
14.795	8.17383
14.8	8.17383
14.805	8.17383
14.81	8.17383
14.815	8.17383
14.82	8.17383
14.825	8.17383
14.83	8.17383
14.835	8.17383
14.84	8.17383
14.845	8.08594
14.85	8.17383
14.855	8.17383
14.86	8.08594
14.865	8.08594
14.87	8.08594
14.875	8.08594
14.88	8.08594
14.885	8.08594
14.89	8.08594
14.895	8.08594
14.9	8.08594
14.905	8.08594
14.91	8.08594
14.915	8.08594
14.92	8.08594
14.925	8.08594
14.93	8.08594
14.935	8.08594
14.94	8.08594
14.945	8.08594
14.95	8.08594
14.955	8.08594
14.96	8.08594
14.965	8.08594
14.97	7.99805
14.975	7.99805
14.98	7.99805
14.985	7.99805
14.99	7.99805
14.995	7.99805
15	7.99805
15.005	7.99805
15.01	7.99805
15.015	7.99805
15.02	7.99805
15.025	7.99805
15.03	7.99805
15.035	7.99805
15.04	7.99805
15.045	7.99805
15.05	7.99805
15.055	7.99805
15.06	7.99805
15.065	7.99805
15.07	7.99805
15.075	7.99805
15.08	7.99805
15.085	7.99805
15.09	7.99805
15.095	7.99805
15.1	7.99805
15.105	7.99805
15.11	7.99805
15.115	7.99805
15.12	7.99805
15.125	7.99805
15.13	7.99805
15.135	7.99805
15.14	7.99805
15.145	7.99805
15.15	7.99805
15.155	7.99805
15.16	7.99805
15.165	7.99805
15.17	7.99805
15.175	7.91016
15.18	7.91016
15.185	7.91016
15.19	7.91016
15.195	7.91016
15.2	7.91016
15.205	7.91016
15.21	7.91016
15.215	7.91016
15.22	7.91016
15.225	7.82227
15.23	7.82227
15.235	7.82227
15.24	7.82227
15.245	7.73437
15.25	7.73437
15.255	7.73437
15.26	7.64648
15.265	7.64648
15.27	7.55859
15.275	7.64648
15.28	7.55859
15.285	7.55859
15.29	7.4707
15.295	7.4707
15.3	7.38281
15.305	7.38281
15.31	7.29492
15.315	7.38281
15.32	7.29492
15.325	7.29492
15.33	7.29492
15.335	7.29492
15.34	7.29492
15.345	7.29492
15.35	7.29492
15.355	7.20703
15.36	7.20703
15.365	7.20703
15.37	7.20703
15.375	7.20703
15.38	7.20703
15.385	7.20703
15.39	7.20703
15.395	7.20703
15.4	7.20703
15.405	7.20703
15.41	7.20703
15.415	7.29492
15.42	7.20703
15.425	7.20703
15.43	7.29492
15.435	7.29492
15.44	7.29492
15.445	7.29492
15.45	7.29492
15.455	7.29492
15.46	7.29492
15.465	7.29492
15.47	7.29492
15.475	7.38281
15.48	7.29492
15.485	7.29492
15.49	7.38281
15.495	7.29492
15.5	7.29492
15.505	7.29492
15.51	7.29492
15.515	7.29492
15.52	7.38281
15.525	7.38281
15.53	7.29492
15.535	7.38281
15.54	7.38281
15.545	7.38281
15.55	7.38281
15.555	7.38281
15.56	7.38281
15.565	7.29492
15.57	7.29492
15.575	7.29492
15.58	7.29492
15.585	7.29492
15.59	7.20703
15.595	7.20703
15.6	7.20703
15.605	7.20703
15.61	7.20703
15.615	7.11914
15.62	7.11914
15.625	7.03125
15.63	7.03125
15.635	7.03125
15.64	6.94336
15.645	6.85547
15.65	6.85547
15.655	6.76758
15.66	6.76758
15.665	6.5918
15.67	6.5918
15.675	6.50391
15.68	6.50391
15.685	6.32812
15.69	6.32812
15.695	6.32812
15.7	6.24023
15.705	6.15234
15.71	6.15234
15.715	6.06445
15.72	5.97656
15.725	5.97656
15.73	5.88867
15.735	5.88867
15.74	5.80078
15.745	5.80078
15.75	5.71289
15.755	5.625
15.76	5.53711
15.765	5.53711
15.77	5.44922
15.775	5.44922
15.78	5.36133
15.785	5.36133
15.79	5.36133
15.795	5.27344
15.8	5.27344
15.805	5.27344
15.81	5.18555
15.815	5.18555
15.82	5.18555
15.825	5.18555
15.83	5.18555
15.835	5.18555
15.84	5.09766
15.845	5.09766
15.85	5.18555
15.855	5.18555
15.86	5.18555
15.865	5.18555
15.87	5.18555
15.875	5.27344
15.88	5.27344
15.885	5.27344
15.89	5.27344
15.895	5.27344
15.9	5.27344
15.905	5.36133
15.91	5.36133
15.915	5.44922
15.92	5.44922
15.925	5.53711
15.93	5.53711
15.935	5.625
15.94	5.71289
15.945	5.71289
15.95	5.80078
15.955	5.80078
15.96	5.97656
15.965	5.97656
15.97	6.06445
15.975	6.15234
15.98	6.24023
15.985	6.24023
15.99	6.32812
15.995	6.41602
16	6.41602
16.005	6.5918
16.01	6.67969
16.015	6.85547
16.02	6.85547
16.025	6.94336
16.03	7.11914
16.035	7.20703
16.04	7.29492
16.045	7.4707
16.05	7.4707
16.055	7.55859
16.06	7.55859
16.065	7.64648
16.07	7.73437
16.075	7.91016
16.08	7.91016
16.085	7.99805
16.09	7.99805
16.095	8.08594
16.1	8.17383
16.105	8.26172
16.11	8.26172
16.115	8.26172
16.12	8.4375
16.125	8.52539
16.13	8.52539
16.135	8.61328
16.14	8.61328
16.145	8.61328
16.15	8.78906
16.155	8.78906
16.16	8.87695
16.165	8.96484
16.17	8.96484
16.175	8.96484
16.18	9.05273
16.185	9.05273
16.19	9.05273
16.195	9.14063
16.2	9.14063
16.205	9.22852
16.21	9.22852
16.215	9.22852
16.22	9.22852
16.225	9.31641
16.23	9.31641
16.235	9.31641
16.24	9.31641
16.245	9.31641
16.25	9.31641
16.255	9.31641
16.26	9.31641
16.265	9.31641
16.27	9.31641
16.275	9.31641
16.28	9.31641
16.285	9.31641
16.29	9.31641
16.295	9.31641
16.3	9.31641
16.305	9.31641
16.31	9.31641
16.315	9.31641
16.32	9.31641
16.325	9.31641
16.33	9.31641
16.335	9.31641
16.34	9.22852
16.345	9.22852
16.35	9.22852
16.355	9.22852
16.36	9.22852
16.365	9.22852
16.37	9.14063
16.375	9.14063
16.38	9.14063
16.385	9.14063
16.39	9.14063
16.395	9.14063
16.4	9.14063
16.405	9.05273
16.41	9.05273
16.415	9.05273
16.42	9.05273
16.425	9.05273
16.43	8.96484
16.435	8.96484
16.44	8.96484
16.445	8.96484
16.45	8.96484
16.455	8.87695
16.46	8.87695
16.465	8.87695
16.47	8.87695
16.475	8.87695
16.48	8.87695
16.485	8.87695
16.49	8.87695
16.495	8.78906
16.5	8.78906
16.505	8.78906
16.51	8.78906
16.515	8.78906
16.52	8.78906
16.525	8.78906
16.53	8.78906
16.535	8.78906
16.54	8.78906
16.545	8.78906
16.55	8.78906
16.555	8.78906
16.56	8.78906
16.565	8.87695
16.57	8.78906
16.575	8.87695
16.58	8.87695
16.585	8.87695
16.59	8.87695
16.595	8.87695
16.6	8.87695
16.605	8.87695
16.61	8.87695
16.615	8.87695
16.62	8.96484
16.625	8.87695
16.63	8.96484
16.635	8.96484
16.64	8.96484
16.645	8.96484
16.65	8.96484
16.655	8.96484
16.66	8.96484
16.665	8.96484
16.67	8.96484
16.675	9.05273
16.68	9.05273
16.685	9.05273
16.69	9.05273
16.695	9.14063
16.7	9.14063
16.705	9.14063
16.71	9.14063
16.715	9.14063
16.72	9.14063
16.725	9.14063
16.73	9.14063
16.735	9.14063
16.74	9.14063
16.745	9.14063
16.75	9.14063
16.755	9.14063
16.76	9.14063
16.765	9.14063
16.77	9.14063
16.775	9.22852
16.78	9.22852
16.785	9.22852
16.79	9.22852
16.795	9.22852
16.8	9.22852
16.805	9.14063
16.81	9.14063
16.815	9.14063
16.82	9.14063
16.825	9.14063
16.83	9.14063
16.835	9.14063
16.84	9.14063
16.845	9.14063
16.85	9.14063
16.855	9.14063
16.86	9.14063
16.865	9.14063
16.87	9.14063
16.875	9.14063
16.88	9.05273
16.885	9.05273
16.89	9.05273
16.895	9.05273
16.9	9.05273
16.905	9.05273
16.91	9.05273
16.915	8.96484
16.92	8.96484
16.925	8.96484
16.93	8.96484
16.935	8.96484
16.94	8.96484
16.945	8.96484
16.95	8.87695
16.955	8.87695
16.96	8.87695
16.965	8.87695
16.97	8.78906
16.975	8.78906
16.98	8.78906
16.985	8.78906
16.99	8.78906
16.995	8.78906
17	8.78906
17.005	8.78906
17.01	8.78906
17.015	8.78906
17.02	8.78906
17.025	8.70117
17.03	8.70117
17.035	8.70117
17.04	8.70117
17.045	8.70117
17.05	8.61328
17.055	8.61328
17.06	8.61328
17.065	8.61328
17.07	8.61328
17.075	8.61328
17.08	8.61328
17.085	8.61328
17.09	8.61328
17.095	8.61328
17.1	8.52539
17.105	8.52539
17.11	8.52539
17.115	8.52539
17.12	8.52539
17.125	8.52539
17.13	8.4375
17.135	8.4375
17.14	8.4375
17.145	8.4375
17.15	8.4375
17.155	8.4375
17.16	8.4375
17.165	8.4375
17.17	8.4375
17.175	8.4375
17.18	8.4375
17.185	8.34961
17.19	8.34961
17.195	8.34961
17.2	8.34961
17.205	8.34961
17.21	8.34961
17.215	8.34961
17.22	8.34961
17.225	8.34961
17.23	8.34961
17.235	8.34961
17.24	8.34961
17.245	8.34961
17.25	8.34961
17.255	8.26172
17.26	8.34961
17.265	8.26172
17.27	8.26172
17.275	8.26172
17.28	8.26172
17.285	8.26172
17.29	8.26172
17.295	8.26172
17.3	8.26172
17.305	8.26172
17.31	8.26172
17.315	8.26172
17.32	8.26172
17.325	8.26172
17.33	8.26172
17.335	8.26172
17.34	8.26172
17.345	8.26172
17.35	8.17383
17.355	8.17383
17.36	8.17383
17.365	8.17383
17.37	8.17383
17.375	8.17383
17.38	8.17383
17.385	8.17383
17.39	8.17383
17.395	8.17383
17.4	8.17383
17.405	8.17383
17.41	8.17383
17.415	8.17383
17.42	8.08594
17.425	8.08594
17.43	8.08594
17.435	8.08594
17.44	8.08594
17.445	8.08594
17.45	8.08594
17.455	8.08594
17.46	8.08594
17.465	8.08594
17.47	8.08594
17.475	8.08594
17.48	8.08594
17.485	8.08594
17.49	8.08594
17.495	8.08594
17.5	8.08594
17.505	8.08594
17.51	8.08594
17.515	8.08594
17.52	8.08594
17.525	8.08594
17.53	8.08594
17.535	8.08594
17.54	8.08594
17.545	8.08594
17.55	8.08594
17.555	8.08594
17.56	8.08594
17.565	8.08594
17.57	8.08594
17.575	8.08594
17.58	8.08594
17.585	8.08594
17.59	8.08594
17.595	8.08594
17.6	8.08594
17.605	8.08594
17.61	8.08594
17.615	8.08594
17.62	8.08594
17.625	8.08594
17.63	8.08594
17.635	8.08594
17.64	8.08594
17.645	8.08594
17.65	8.08594
17.655	8.08594
17.66	8.08594
17.665	8.08594
17.67	8.08594
17.675	8.08594
17.68	8.08594
17.685	8.08594
17.69	8.08594
17.695	8.08594
17.7	8.08594
17.705	8.08594
17.71	8.08594
17.715	8.08594
17.72	8.08594
17.725	8.08594
17.73	8.08594
17.735	8.08594
17.74	8.08594
17.745	8.08594
17.75	8.08594
17.755	8.08594
17.76	8.08594
17.765	7.99805
17.77	7.99805
17.775	7.99805
17.78	7.99805
17.785	7.99805
17.79	7.99805
17.795	7.99805
17.8	7.99805
17.805	7.99805
17.81	7.99805
17.815	7.99805
17.82	7.99805
17.825	7.99805
17.83	7.99805
17.835	7.99805
17.84	7.99805
17.845	7.99805
17.85	7.99805
17.855	7.99805
17.86	7.99805
17.865	7.99805
17.87	7.99805
17.875	7.99805
17.88	7.99805
17.885	7.99805
17.89	7.99805
17.895	7.99805
17.9	7.99805
17.905	7.99805
17.91	7.99805
17.915	7.99805
17.92	7.99805
17.925	7.99805
17.93	7.99805
17.935	7.99805
17.94	7.99805
17.945	7.99805
17.95	7.99805
17.955	7.99805
17.96	7.99805
17.965	7.99805
17.97	7.99805
17.975	7.99805
17.98	7.99805
17.985	7.99805
17.99	7.99805
17.995	7.99805
18	7.99805
18.005	7.99805
18.01	7.99805
18.015	7.99805
18.02	7.91016
18.025	7.91016
18.03	7.99805
18.035	7.91016
18.04	7.91016
18.045	7.91016
18.05	7.91016
18.055	7.99805
18.06	7.99805
18.065	7.91016
18.07	7.99805
18.075	7.99805
18.08	7.99805
18.085	7.99805
18.09	7.91016
18.095	7.99805
18.1	7.99805
18.105	7.99805
18.11	7.99805
18.115	7.99805
18.12	7.99805
18.125	7.99805
18.13	7.99805
18.135	7.99805
18.14	7.99805
18.145	7.99805
18.15	7.99805
18.155	7.99805
18.16	7.99805
18.165	8.08594
18.17	8.08594
18.175	8.08594
18.18	8.08594
18.185	8.08594
18.19	8.08594
18.195	8.08594
18.2	8.08594
18.205	8.08594
18.21	8.08594
18.215	8.08594
18.22	8.08594
18.225	8.08594
18.23	8.08594
18.235	8.08594
18.24	8.08594
18.245	8.08594
18.25	8.08594
18.255	8.08594
18.26	8.08594
18.265	8.08594
18.27	8.08594
18.275	8.17383
18.28	8.17383
18.285	8.17383
18.29	8.17383
18.295	8.17383
18.3	8.17383
18.305	8.17383
18.31	8.17383
18.315	8.17383
18.32	8.17383
18.325	8.17383
18.33	8.17383
18.335	8.17383
18.34	8.17383
18.345	8.17383
18.35	8.17383
18.355	8.26172
18.36	8.26172
18.365	8.26172
18.37	8.26172
18.375	8.26172
18.38	8.26172
18.385	8.26172
18.39	8.26172
18.395	8.26172
18.4	8.26172
18.405	8.26172
18.41	8.26172
18.415	8.26172
18.42	8.26172
18.425	8.26172
18.43	8.26172
18.435	8.26172
18.44	8.26172
18.445	8.26172
18.45	8.26172
18.455	8.26172
18.46	8.26172
18.465	8.26172
18.47	8.26172
18.475	8.26172
18.48	8.26172
18.485	8.26172
18.49	8.26172
18.495	8.26172
18.5	8.26172
18.505	8.26172
18.51	8.26172
18.515	8.26172
18.52	8.26172
18.525	8.17383
18.53	8.26172
18.535	8.26172
18.54	8.17383
18.545	8.17383
18.55	8.17383
18.555	8.17383
18.56	8.17383
18.565	8.17383
18.57	8.17383
18.575	8.17383
18.58	8.17383
18.585	8.17383
18.59	8.17383
18.595	8.17383
18.6	8.17383
18.605	8.17383
18.61	8.17383
18.615	8.17383
18.62	8.17383
18.625	8.17383
18.63	8.17383
18.635	8.17383
18.64	8.17383
18.645	8.17383
18.65	8.17383
18.655	8.17383
18.66	8.17383
18.665	8.17383
18.67	8.17383
18.675	8.17383
18.68	8.17383
18.685	8.17383
18.69	8.17383
18.695	8.17383
18.7	8.17383
18.705	8.17383
18.71	8.17383
18.715	8.17383
18.72	8.17383
18.725	8.17383
18.73	8.17383
18.735	8.17383
18.74	8.17383
18.745	8.17383
18.75	8.17383
18.755	8.17383
18.76	8.17383
18.765	8.17383
18.77	8.17383
18.775	8.17383
18.78	8.17383
18.785	8.17383
18.79	8.17383
18.795	8.17383
18.8	8.17383
18.805	8.17383
18.81	8.17383
18.815	8.17383
18.82	8.17383
18.825	8.17383
18.83	8.17383
18.835	8.17383
18.84	8.17383
18.845	8.17383
18.85	8.26172
18.855	8.26172
18.86	8.26172
18.865	8.26172
18.87	8.26172
18.875	8.26172
18.88	8.26172
18.885	8.26172
18.89	8.26172
18.895	8.26172
18.9	8.26172
18.905	8.26172
18.91	8.26172
18.915	8.26172
18.92	8.26172
18.925	8.34961
18.93	8.34961
18.935	8.34961
18.94	8.34961
18.945	8.34961
18.95	8.34961
18.955	8.34961
18.96	8.34961
18.965	8.34961
18.97	8.34961
18.975	8.34961
18.98	8.34961
18.985	8.34961
18.99	8.34961
18.995	8.34961
19	8.34961
19.005	8.34961
19.01	8.34961
19.015	8.34961
19.02	8.34961
19.025	8.34961
19.03	8.34961
19.035	8.34961
19.04	8.34961
19.045	8.34961
19.05	8.34961
19.055	8.34961
19.06	8.34961
19.065	8.34961
19.07	8.34961
19.075	8.34961
19.08	8.34961
19.085	8.34961
19.09	8.34961
19.095	8.34961
19.1	8.34961
19.105	8.4375
19.11	8.4375
19.115	8.4375
19.12	8.4375
19.125	8.34961
19.13	8.4375
19.135	8.34961
19.14	8.34961
19.145	8.4375
19.15	8.34961
19.155	8.4375
19.16	8.4375
19.165	8.4375
19.17	8.4375
19.175	8.4375
19.18	8.4375
19.185	8.4375
19.19	8.4375
19.195	8.4375
19.2	8.4375
19.205	8.4375
19.21	8.4375
19.215	8.4375
19.22	8.4375
19.225	8.4375
19.23	8.4375
19.235	8.4375
19.24	8.4375
19.245	8.34961
19.25	8.4375
19.255	8.34961
19.26	8.34961
19.265	8.34961
19.27	8.34961
19.275	8.34961
19.28	8.34961
19.285	8.34961
19.29	8.34961
19.295	8.34961
19.3	8.34961
19.305	8.34961
19.31	8.34961
19.315	8.34961
19.32	8.34961
19.325	8.34961
19.33	8.34961
19.335	8.34961
19.34	8.34961
19.345	8.34961
19.35	8.34961
19.355	8.34961
19.36	8.34961
19.365	8.34961
19.37	8.34961
19.375	8.34961
19.38	8.34961
19.385	8.34961
19.39	8.34961
19.395	8.34961
19.4	8.34961
19.405	8.34961
19.41	8.34961
19.415	8.34961
19.42	8.34961
19.425	8.34961
19.43	8.34961
19.435	8.34961
19.44	8.34961
19.445	8.34961
19.45	8.34961
19.455	8.34961
19.46	8.34961
19.465	8.34961
19.47	8.34961
19.475	8.34961
19.48	8.34961
19.485	8.34961
19.49	8.34961
19.495	8.34961
19.5	8.34961
19.505	8.34961
19.51	8.34961
19.515	8.34961
19.52	8.34961
19.525	8.34961
19.53	8.34961
19.535	8.34961
19.54	8.34961
19.545	8.34961
19.55	8.34961
19.555	8.34961
19.56	8.34961
19.565	8.34961
19.57	8.34961
19.575	8.34961
19.58	8.34961
19.585	8.34961
19.59	8.34961
19.595	8.34961
19.6	8.34961
19.605	8.4375
19.61	8.34961
19.615	8.34961
19.62	8.4375
19.625	8.4375
19.63	8.4375
19.635	8.4375
19.64	8.4375
19.645	8.4375
19.65	8.4375
19.655	8.4375
19.66	8.4375
19.665	8.4375
19.67	8.4375
19.675	8.4375
19.68	8.4375
19.685	8.4375
19.69	8.4375
19.695	8.4375
19.7	8.4375
19.705	8.4375
19.71	8.4375
19.715	8.4375
19.72	8.4375
19.725	8.4375
19.73	8.52539
19.735	8.52539
19.74	8.4375
19.745	8.52539
19.75	8.4375
19.755	8.4375
19.76	8.4375
19.765	8.4375
19.77	8.52539
19.775	8.4375
19.78	8.4375
19.785	8.52539
19.79	8.4375
19.795	8.4375
19.8	8.4375
19.805	8.52539
19.81	8.52539
19.815	8.52539
19.82	8.4375
19.825	8.4375
19.83	8.4375
19.835	8.52539
19.84	8.4375
19.845	8.4375
19.85	8.4375
19.855	8.4375
19.86	8.4375
19.865	8.4375
19.87	8.4375
19.875	8.4375
19.88	8.4375
19.885	8.4375
19.89	8.4375
19.895	8.4375
19.9	8.4375
19.905	8.4375
19.91	8.4375
19.915	8.4375
19.92	8.4375
19.925	8.4375
19.93	8.4375
19.935	8.4375
19.94	8.4375
19.945	8.4375
19.95	8.4375
19.955	8.4375
19.96	8.4375
19.965	8.4375
19.97	8.4375
19.975	8.4375
19.98	8.4375
19.985	8.4375
19.99	8.4375
19.995	8.4375
20	8.4375
20.005	8.4375
20.01	8.4375
20.015	8.4375
20.02	8.4375
20.025	8.4375
20.03	8.4375
20.035	8.4375
20.04	8.4375
20.045	8.34961
20.05	8.34961
20.055	8.34961
20.06	8.34961
20.065	8.34961
20.07	8.34961
20.075	8.34961
20.08	8.34961
20.085	8.34961
20.09	8.34961
20.095	8.34961
20.1	8.26172
20.105	8.26172
20.11	8.26172
20.115	8.26172
20.12	8.17383
20.125	8.17383
20.13	8.17383
20.135	8.17383
20.14	8.08594
20.145	7.99805
20.15	7.99805
20.155	7.91016
20.16	7.91016
20.165	7.91016
20.17	7.82227
20.175	7.73437
20.18	7.64648
20.185	7.64648
20.19	7.55859
20.195	7.55859
20.2	7.4707
20.205	7.38281
20.21	7.29492
20.215	7.29492
20.22	7.20703
20.225	7.20703
20.23	7.11914
20.235	7.03125
20.24	7.03125
20.245	6.94336
20.25	6.85547
20.255	6.85547
20.26	6.85547
20.265	6.67969
20.27	6.67969
20.275	6.67969
20.28	6.67969
20.285	6.5918
20.29	6.50391
20.295	6.41602
20.3	6.41602
20.305	6.41602
20.31	6.32812
20.315	6.32812
20.32	6.24023
20.325	6.32812
20.33	6.32812
20.335	6.32812
20.34	6.24023
20.345	6.32812
20.35	6.24023
20.355	6.24023
20.36	6.24023
20.365	6.24023
20.37	6.32812
20.375	6.32812
20.38	6.32812
20.385	6.32812
20.39	6.32812
20.395	6.41602
20.4	6.41602
20.405	6.50391
20.41	6.50391
20.415	6.50391
20.42	6.50391
20.425	6.5918
20.43	6.5918
20.435	6.67969
20.44	6.76758
20.445	6.76758
20.45	6.85547
20.455	6.94336
20.46	6.94336
20.465	7.03125
20.47	7.20703
20.475	7.20703
20.48	7.20703
20.485	7.29492
20.49	7.38281
20.495	7.38281
20.5	7.55859
20.505	7.55859
20.51	7.73437
20.515	7.82227
20.52	7.82227
20.525	7.99805
20.53	8.08594
20.535	8.08594
20.54	8.17383
20.545	8.26172
20.55	8.26172
20.555	8.34961
20.56	8.4375
20.565	8.52539
20.57	8.70117
20.575	8.70117
20.58	8.78906
20.585	8.87695
20.59	8.78906
20.595	8.87695
20.6	8.87695
20.605	8.87695
20.61	8.96484
20.615	8.96484
20.62	9.05273
20.625	9.14063
20.63	9.14063
20.635	9.14063
20.64	9.14063
20.645	9.22852
20.65	9.22852
20.655	9.22852
20.66	9.22852
20.665	9.14063
20.67	9.14063
20.675	9.14063
20.68	9.14063
20.685	9.14063
20.69	9.22852
20.695	9.22852
20.7	9.22852
20.705	9.22852
20.71	9.22852
20.715	9.22852
20.72	9.14063
20.725	9.14063
20.73	9.22852
20.735	9.14063
20.74	9.14063
20.745	9.05273
20.75	9.05273
20.755	8.96484
20.76	8.96484
20.765	8.87695
20.77	8.87695
20.775	8.87695
20.78	8.78906
20.785	8.78906
20.79	8.78906
20.795	8.78906
20.8	8.78906
20.805	8.70117
20.81	8.70117
20.815	8.61328
20.82	8.61328
20.825	8.52539
20.83	8.52539
20.835	8.52539
20.84	8.4375
20.845	8.34961
20.85	8.34961
20.855	8.34961
20.86	8.34961
20.865	8.26172
20.87	8.17383
20.875	8.17383
20.88	8.17383
20.885	8.08594
20.89	8.08594
20.895	8.08594
20.9	7.99805
20.905	7.99805
20.91	7.91016
20.915	7.91016
20.92	7.91016
20.925	7.91016
20.93	7.91016
20.935	7.73437
20.94	7.73437
20.945	7.73437
20.95	7.64648
20.955	7.64648
20.96	7.64648
20.965	7.64648
20.97	7.55859
20.975	7.55859
20.98	7.55859
20.985	7.55859
20.99	7.55859
20.995	7.55859
21	7.55859
21.005	7.4707
21.01	7.4707
21.015	7.4707
21.02	7.4707
21.025	7.38281
21.03	7.38281
21.035	7.38281
21.04	7.38281
21.045	7.38281
21.05	7.38281
21.055	7.38281
21.06	7.38281
21.065	7.38281
21.07	7.38281
21.075	7.38281
21.08	7.38281
21.085	7.38281
21.09	7.38281
21.095	7.38281
21.1	7.29492
21.105	7.29492
21.11	7.29492
21.115	7.29492
21.12	7.29492
21.125	7.29492
21.13	7.20703
21.135	7.20703
21.14	7.20703
21.145	7.20703
21.15	7.20703
21.155	7.20703
21.16	7.20703
21.165	7.20703
21.17	7.20703
21.175	7.29492
21.18	7.20703
21.185	7.20703
21.19	7.20703
21.195	7.20703
21.2	7.20703
21.205	7.20703
21.21	7.20703
21.215	7.20703
21.22	7.20703
21.225	7.20703
21.23	7.20703
21.235	7.20703
21.24	7.20703
21.245	7.20703
21.25	7.20703
21.255	7.20703
21.26	7.20703
21.265	7.20703
21.27	7.20703
21.275	7.20703
21.28	7.20703
21.285	7.11914
21.29	7.11914
21.295	7.20703
21.3	7.11914
21.305	7.11914
21.31	7.11914
21.315	7.11914
21.32	7.11914
21.325	7.11914
21.33	7.20703
21.335	7.20703
21.34	7.20703
21.345	7.11914
21.35	7.11914
21.355	7.11914
21.36	7.11914
21.365	7.11914
21.37	7.11914
21.375	7.11914
21.38	7.11914
21.385	7.11914
21.39	7.11914
21.395	7.11914
21.4	7.11914
21.405	7.11914
21.41	7.11914
21.415	7.11914
21.42	7.11914
21.425	7.11914
21.43	7.11914
21.435	7.11914
21.44	7.03125
21.445	7.03125
21.45	7.03125
21.455	7.03125
21.46	7.03125
21.465	7.03125
21.47	7.03125
21.475	7.03125
21.48	7.03125
21.485	7.03125
21.49	7.03125
21.495	7.03125
21.5	7.03125
21.505	7.03125
21.51	7.03125
21.515	7.03125
21.52	7.03125
21.525	6.94336
21.53	6.94336
21.535	6.94336
21.54	6.94336
21.545	6.94336
21.55	6.94336
21.555	6.94336
21.56	6.94336
21.565	6.94336
21.57	6.94336
21.575	6.94336
21.58	6.94336
21.585	6.94336
21.59	6.94336
21.595	6.94336
21.6	6.94336
21.605	6.85547
21.61	6.85547
21.615	6.85547
21.62	6.85547
21.625	6.85547
21.63	6.85547
21.635	6.85547
21.64	6.85547
21.645	6.85547
21.65	6.85547
21.655	6.85547
21.66	6.85547
21.665	6.85547
21.67	6.85547
21.675	6.85547
21.68	6.85547
21.685	6.85547
21.69	6.85547
21.695	6.85547
21.7	6.85547
21.705	6.85547
21.71	6.85547
21.715	6.76758
21.72	6.76758
21.725	6.76758
21.73	6.76758
21.735	6.76758
21.74	6.76758
21.745	6.85547
21.75	6.85547
21.755	6.85547
21.76	6.85547
21.765	6.85547
21.77	6.76758
21.775	6.76758
21.78	6.76758
21.785	6.76758
21.79	6.76758
21.795	6.76758
21.8	6.76758
21.805	6.76758
21.81	6.76758
21.815	6.76758
21.82	6.76758
21.825	6.76758
21.83	6.76758
21.835	6.76758
21.84	6.76758
21.845	6.76758
21.85	6.76758
21.855	6.76758
21.86	6.76758
21.865	6.76758
21.87	6.76758
21.875	6.76758
21.88	6.76758
21.885	6.67969
21.89	6.67969
21.895	6.67969
21.9	6.67969
21.905	6.67969
21.91	6.67969
21.915	6.67969
21.92	6.67969
21.925	6.67969
21.93	6.67969
21.935	6.67969
21.94	6.67969
21.945	6.76758
21.95	6.76758
21.955	6.67969
21.96	6.76758
21.965	6.76758
21.97	6.76758
21.975	6.76758
21.98	6.67969
21.985	6.67969
21.99	6.67969
21.995	6.67969
22	6.67969
22.005	6.67969
22.01	6.67969
22.015	6.67969
22.02	6.67969
22.025	6.67969
22.03	6.67969
22.035	6.67969
22.04	6.67969
22.045	6.67969
22.05	6.76758
22.055	6.76758
22.06	6.76758
22.065	6.76758
22.07	6.76758
22.075	6.76758
22.08	6.76758
22.085	6.67969
22.09	6.67969
22.095	6.67969
22.1	6.67969
22.105	6.67969
22.11	6.67969
22.115	6.67969
22.12	6.76758
22.125	6.76758
22.13	6.76758
22.135	6.76758
22.14	6.76758
22.145	6.76758
22.15	6.76758
22.155	6.76758
22.16	6.76758
22.165	6.76758
22.17	6.76758
22.175	6.76758
22.18	6.76758
22.185	6.76758
22.19	6.76758
22.195	6.76758
22.2	6.76758
22.205	6.85547
22.21	6.85547
22.215	6.85547
22.22	6.85547
22.225	6.85547
22.23	6.85547
22.235	6.85547
22.24	6.85547
22.245	6.85547
22.25	6.85547
22.255	6.85547
22.26	6.85547
22.265	6.85547
22.27	6.85547
22.275	6.85547
22.28	6.94336
22.285	6.94336
22.29	6.94336
22.295	6.94336
22.3	6.94336
22.305	7.03125
22.31	7.03125
22.315	7.03125
22.32	7.03125
22.325	7.03125
22.33	7.03125
22.335	7.03125
22.34	7.03125
22.345	7.03125
22.35	7.03125
22.355	7.03125
22.36	7.03125
22.365	7.03125
22.37	7.03125
22.375	7.03125
22.38	7.03125
22.385	7.11914
22.39	7.11914
22.395	7.11914
22.4	7.11914
22.405	7.11914
22.41	7.20703
22.415	7.11914
22.42	7.11914
22.425	7.20703
22.43	7.11914
22.435	7.11914
22.44	7.11914
22.445	7.11914
22.45	7.11914
22.455	7.11914
22.46	7.11914
22.465	7.11914
22.47	7.20703
22.475	7.20703
22.48	7.20703
22.485	7.20703
22.49	7.20703
22.495	7.20703
22.5	7.20703
22.505	7.20703
22.51	7.20703
22.515	7.20703
22.52	7.20703
22.525	7.20703
22.53	7.20703
22.535	7.20703
22.54	7.20703
22.545	7.20703
22.55	7.20703
22.555	7.20703
22.56	7.20703
22.565	7.20703
22.57	7.20703
22.575	7.20703
22.58	7.20703
22.585	7.20703
22.59	7.20703
22.595	7.20703
22.6	7.20703
22.605	7.20703
22.61	7.20703
22.615	7.29492
22.62	7.20703
22.625	7.20703
22.63	7.20703
22.635	7.20703
22.64	7.20703
22.645	7.20703
22.65	7.20703
22.655	7.20703
22.66	7.20703
22.665	7.20703
22.67	7.20703
22.675	7.20703
22.68	7.20703
22.685	7.20703
22.69	7.20703
22.695	7.29492
22.7	7.29492
22.705	7.29492
22.71	7.29492
22.715	7.29492
22.72	7.29492
22.725	7.29492
22.73	7.29492
22.735	7.29492
22.74	7.29492
22.745	7.29492
22.75	7.29492
22.755	7.29492
22.76	7.29492
22.765	7.29492
22.77	7.29492
22.775	7.29492
22.78	7.29492
22.785	7.29492
22.79	7.29492
22.795	7.29492
22.8	7.29492
22.805	7.29492
22.81	7.29492
22.815	7.29492
22.82	7.29492
22.825	7.29492
22.83	7.29492
22.835	7.29492
22.84	7.29492
22.845	7.29492
22.85	7.29492
22.855	7.29492
22.86	7.29492
22.865	7.29492
22.87	7.29492
22.875	7.29492
22.88	7.29492
22.885	7.29492
22.89	7.29492
22.895	7.38281
22.9	7.38281
22.905	7.38281
22.91	7.38281
22.915	7.29492
22.92	7.38281
22.925	7.29492
22.93	7.29492
22.935	7.29492
22.94	7.29492
22.945	7.29492
22.95	7.29492
22.955	7.38281
22.96	7.38281
22.965	7.38281
22.97	7.38281
22.975	7.38281
22.98	7.38281
22.985	7.38281
22.99	7.38281
22.995	7.38281
23	7.38281
23.005	7.38281
23.01	7.38281
23.015	7.38281
23.02	7.38281
23.025	7.38281
23.03	7.38281
23.035	7.38281
23.04	7.38281
23.045	7.38281
23.05	7.4707
23.055	7.4707
23.06	7.4707
23.065	7.4707
23.07	7.4707
23.075	7.4707
23.08	7.55859
23.085	7.55859
23.09	7.4707
23.095	7.55859
23.1	7.55859
23.105	7.55859
23.11	7.55859
23.115	7.55859
23.12	7.55859
23.125	7.55859
23.13	7.55859
23.135	7.55859
23.14	7.55859
23.145	7.55859
23.15	7.55859
23.155	7.55859
23.16	7.55859
23.165	7.64648
23.17	7.64648
23.175	7.64648
23.18	7.64648
23.185	7.64648
23.19	7.64648
23.195	7.64648
23.2	7.64648
23.205	7.64648
23.21	7.64648
23.215	7.64648
23.22	7.64648
23.225	7.64648
23.23	7.64648
23.235	7.64648
23.24	7.64648
23.245	7.64648
23.25	7.64648
23.255	7.73437
23.26	7.73437
23.265	7.73437
23.27	7.73437
23.275	7.73437
23.28	7.73437
23.285	7.73437
23.29	7.73437
23.295	7.73437
23.3	7.73437
23.305	7.73437
23.31	7.73437
23.315	7.73437
23.32	7.73437
23.325	7.73437
23.33	7.73437
23.335	7.73437
23.34	7.73437
23.345	7.73437
23.35	7.73437
23.355	7.73437
23.36	7.82227
23.365	7.73437
23.37	7.82227
23.375	7.82227
23.38	7.82227
23.385	7.82227
23.39	7.82227
23.395	7.82227
23.4	7.82227
23.405	7.73437
23.41	7.73437
23.415	7.82227
23.42	7.82227
23.425	7.82227
23.43	7.82227
23.435	7.82227
23.44	7.82227
23.445	7.82227
23.45	7.82227
23.455	7.82227
23.46	7.82227
23.465	7.82227
23.47	7.82227
23.475	7.82227
23.48	7.82227
23.485	7.82227
23.49	7.82227
23.495	7.82227
23.5	7.73437
23.505	7.73437
23.51	7.73437
23.515	7.73437
23.52	7.73437
23.525	7.73437
23.53	7.73437
23.535	7.73437
23.54	7.73437
23.545	7.82227
23.55	7.82227
23.555	7.73437
23.56	7.82227
23.565	7.82227
23.57	7.82227
23.575	7.82227
23.58	7.82227
23.585	7.73437
23.59	7.73437
23.595	7.73437
23.6	7.73437
23.605	7.73437
23.61	7.73437
23.615	7.73437
23.62	7.73437
23.625	7.73437
23.63	7.73437
23.635	7.73437
23.64	7.73437
23.645	7.73437
23.65	7.73437
23.655	7.73437
23.66	7.73437
23.665	7.73437
23.67	7.73437
23.675	7.73437
23.68	7.73437
23.685	7.73437
23.69	7.73437
23.695	7.73437
23.7	7.73437
23.705	7.73437
23.71	7.82227
23.715	7.82227
23.72	7.82227
23.725	7.73437
23.73	7.82227
23.735	7.82227
23.74	7.73437
23.745	7.73437
23.75	7.73437
23.755	7.73437
23.76	7.73437
23.765	7.73437
23.77	7.73437
23.775	7.73437
23.78	7.73437
23.785	7.73437
23.79	7.73437
23.795	7.73437
23.8	7.73437
23.805	7.73437
23.81	7.73437
23.815	7.73437
23.82	7.73437
23.825	7.73437
23.83	7.73437
23.835	7.73437
23.84	7.73437
23.845	7.73437
23.85	7.73437
23.855	7.73437
23.86	7.73437
23.865	7.73437
23.87	7.73437
23.875	7.73437
23.88	7.73437
23.885	7.73437
23.89	7.73437
23.895	7.73437
23.9	7.73437
23.905	7.73437
23.91	7.73437
23.915	7.73437
23.92	7.73437
23.925	7.73437
23.93	7.73437
23.935	7.73437
23.94	7.73437
23.945	7.73437
23.95	7.73437
23.955	7.73437
23.96	7.73437
23.965	7.73437
23.97	7.64648
23.975	7.64648
23.98	7.64648
23.985	7.64648
23.99	7.73437
23.995	7.64648
24	7.64648
24.005	7.64648
24.01	7.64648
24.015	7.64648
24.02	7.64648
24.025	7.64648
24.03	7.64648
24.035	7.64648
24.04	7.64648
24.045	7.64648
24.05	7.64648
24.055	7.64648
24.06	7.64648
24.065	7.64648
24.07	7.64648
24.075	7.64648
24.08	7.64648
24.085	7.64648
24.09	7.64648
24.095	7.55859
24.1	7.55859
24.105	7.55859
24.11	7.55859
24.115	7.55859
24.12	7.55859
24.125	7.55859
24.13	7.55859
24.135	7.55859
24.14	7.55859
24.145	7.55859
24.15	7.55859
24.155	7.55859
24.16	7.55859
24.165	7.55859
24.17	7.55859
24.175	7.55859
24.18	7.55859
24.185	7.55859
24.19	7.4707
24.195	7.4707
24.2	7.4707
24.205	7.4707
24.21	7.4707
24.215	7.4707
24.22	7.4707
24.225	7.4707
24.23	7.4707
24.235	7.4707
24.24	7.4707
24.245	7.4707
24.25	7.4707
24.255	7.4707
24.26	7.4707
24.265	7.4707
24.27	7.4707
24.275	7.4707
24.28	7.38281
24.285	7.38281
24.29	7.38281
24.295	7.38281
24.3	7.38281
24.305	7.38281
24.31	7.38281
24.315	7.38281
24.32	7.38281
24.325	7.38281
24.33	7.38281
24.335	7.38281
24.34	7.38281
24.345	7.38281
24.35	7.38281
24.355	7.38281
24.36	7.38281
24.365	7.38281
24.37	7.38281
24.375	7.38281
24.38	7.38281
24.385	7.38281
24.39	7.38281
24.395	7.38281
24.4	7.38281
24.405	7.38281
24.41	7.38281
24.415	7.38281
24.42	7.38281
24.425	7.38281
24.43	7.38281
24.435	7.38281
24.44	7.38281
24.445	7.38281
24.45	7.38281
24.455	7.38281
24.46	7.38281
24.465	7.38281
24.47	7.38281
24.475	7.38281
24.48	7.38281
24.485	7.38281
24.49	7.38281
24.495	7.38281
24.5	7.38281
24.505	7.38281
24.51	7.38281
24.515	7.38281
24.52	7.38281
24.525	7.38281
24.53	7.38281
24.535	7.38281
24.54	7.38281
24.545	7.38281
24.55	7.38281
24.555	7.38281
24.56	7.38281
24.565	7.38281
24.57	7.38281
24.575	7.38281
24.58	7.38281
24.585	7.38281
24.59	7.38281
24.595	7.38281
24.6	7.38281
24.605	7.38281
24.61	7.38281
24.615	7.38281
24.62	7.38281
24.625	7.38281
24.63	7.38281
24.635	7.38281
24.64	7.38281
24.645	7.38281
24.65	7.38281
24.655	7.38281
24.66	7.38281
24.665	7.38281
24.67	7.38281
24.675	7.38281
24.68	7.38281
24.685	7.38281
24.69	7.38281
24.695	7.38281
24.7	7.4707
24.705	7.38281
24.71	7.38281
24.715	7.38281
24.72	7.38281
24.725	7.38281
24.73	7.38281
24.735	7.38281
24.74	7.38281
24.745	7.38281
24.75	7.38281
24.755	7.38281
24.76	7.38281
24.765	7.38281
24.77	7.38281
24.775	7.38281
24.78	7.4707
24.785	7.4707
24.79	7.4707
24.795	7.4707
24.8	7.4707
24.805	7.4707
24.81	7.4707
24.815	7.4707
24.82	7.4707
24.825	7.38281
24.83	7.38281
24.835	7.38281
24.84	7.38281
24.845	7.4707
24.85	7.4707
24.855	7.4707
24.86	7.4707
24.865	7.4707
24.87	7.4707
24.875	7.4707
24.88	7.4707
24.885	7.4707
24.89	7.4707
24.895	7.4707
24.9	7.4707
24.905	7.4707
24.91	7.4707
24.915	7.4707
24.92	7.4707
24.925	7.4707
24.93	7.4707
24.935	7.4707
24.94	7.4707
24.945	7.4707
24.95	7.4707
24.955	7.4707
24.96	7.4707
24.965	7.4707
24.97	7.4707
24.975	7.4707
24.98	7.4707
24.985	7.4707
24.99	7.4707
24.995	7.4707
25	7.4707
25.005	7.4707
25.01	7.4707
25.015	7.4707
25.02	7.4707
25.025	7.4707
25.03	7.4707
25.035	7.4707
25.04	7.4707
25.045	7.4707
25.05	7.4707
25.055	7.4707
25.06	7.4707
25.065	7.4707
25.07	7.4707
25.075	7.4707
25.08	7.4707
25.085	7.4707
25.09	7.4707
25.095	7.4707
25.1	7.4707
25.105	7.4707
25.11	7.4707
25.115	7.4707
25.12	7.4707
25.125	7.4707
25.13	7.4707
25.135	7.4707
25.14	7.38281
25.145	7.38281
25.15	7.38281
25.155	7.38281
25.16	7.38281
25.165	7.38281
25.17	7.38281
25.175	7.29492
25.18	7.29492
25.185	7.20703
25.19	7.20703
25.195	7.11914
25.2	7.20703
25.205	7.20703
25.21	7.03125
25.215	7.20703
25.22	7.03125
25.225	6.94336
25.23	6.94336
25.235	6.94336
25.24	6.94336
25.245	6.85547
25.25	6.85547
25.255	6.85547
25.26	6.85547
25.265	6.85547
25.27	6.85547
25.275	6.85547
25.28	6.85547
25.285	6.85547
25.29	6.85547
25.295	6.85547
25.3	6.76758
25.305	6.76758
25.31	6.76758
25.315	6.76758
25.32	6.76758
25.325	6.85547
25.33	6.85547
25.335	6.85547
25.34	6.85547
25.345	6.85547
25.35	6.85547
25.355	6.85547
25.36	6.94336
25.365	6.94336
25.37	6.94336
25.375	6.85547
25.38	6.85547
25.385	7.03125
25.39	7.03125
25.395	7.03125
25.4	7.03125
25.405	7.11914
25.41	7.11914
25.415	7.11914
25.42	7.11914
25.425	7.03125
25.43	7.03125
25.435	7.03125
25.44	7.03125
25.445	7.03125
25.45	7.03125
25.455	7.11914
25.46	7.11914
25.465	7.11914
25.47	7.11914
25.475	7.11914
25.48	7.03125
25.485	6.94336
25.49	6.94336
25.495	6.85547
25.5	6.85547
25.505	6.85547
25.51	6.85547
25.515	6.85547
25.52	6.85547
25.525	6.85547
25.53	6.85547
25.535	6.76758
25.54	6.67969
25.545	6.5918
25.55	6.50391
25.555	6.50391
25.56	6.50391
25.565	6.41602
25.57	6.41602
25.575	6.41602
25.58	6.32812
25.585	6.32812
25.59	6.24023
25.595	6.15234
25.6	6.06445
25.605	5.97656
25.61	5.97656
25.615	5.97656
25.62	5.97656
25.625	5.97656
25.63	5.88867
25.635	5.88867
25.64	5.88867
25.645	5.71289
25.65	5.71289
25.655	5.625
25.66	5.53711
25.665	5.53711
25.67	5.53711
25.675	5.53711
25.68	5.53711
25.685	5.44922
25.69	5.44922
25.695	5.44922
25.7	5.44922
25.705	5.36133
25.71	5.36133
25.715	5.36133
25.72	5.27344
25.725	5.27344
25.73	5.27344
25.735	5.36133
25.74	5.36133
25.745	5.36133
25.75	5.36133
25.755	5.36133
25.76	5.36133
25.765	5.36133
25.77	5.36133
25.775	5.44922
25.78	5.44922
25.785	5.44922
25.79	5.53711
25.795	5.625
25.8	5.625
25.805	5.71289
25.81	5.71289
25.815	5.80078
25.82	5.88867
25.825	5.97656
25.83	6.06445
25.835	6.06445
25.84	6.15234
25.845	6.24023
25.85	6.24023
25.855	6.32812
25.86	6.41602
25.865	6.41602
25.87	6.5918
25.875	6.5918
25.88	6.67969
25.885	6.76758
25.89	6.76758
25.895	6.85547
25.9	6.94336
25.905	7.03125
25.91	7.03125
25.915	7.11914
25.92	7.20703
25.925	7.20703
25.93	7.38281
25.935	7.38281
25.94	7.4707
25.945	7.55859
25.95	7.55859
25.955	7.64648
25.96	7.73437
25.965	7.82227
25.97	7.82227
25.975	7.91016
25.98	7.91016
25.985	7.99805
25.99	7.99805
25.995	8.08594
26	8.08594
26.005	8.08594
26.01	8.17383
26.015	8.17383
26.02	8.17383
26.025	8.17383
26.03	8.26172
26.035	8.26172
26.04	8.26172
26.045	8.34961
26.05	8.34961
26.055	8.34961
26.06	8.34961
26.065	8.34961
26.07	8.34961
26.075	8.34961
26.08	8.34961
26.085	8.34961
26.09	8.34961
26.095	8.34961
26.1	8.34961
26.105	8.34961
26.11	8.34961
26.115	8.34961
26.12	8.34961
26.125	8.34961
26.13	8.34961
26.135	8.34961
26.14	8.34961
26.145	8.34961
26.15	8.34961
26.155	8.34961
26.16	8.34961
26.165	8.34961
26.17	8.34961
26.175	8.34961
26.18	8.26172
26.185	8.34961
26.19	8.26172
26.195	8.26172
26.2	8.26172
26.205	8.26172
26.21	8.26172
26.215	8.26172
26.22	8.26172
26.225	8.26172
26.23	8.26172
26.235	8.26172
26.24	8.26172
26.245	8.26172
26.25	8.26172
26.255	8.26172
26.26	8.26172
26.265	8.26172
26.27	8.26172
26.275	8.34961
26.28	8.34961
26.285	8.34961
26.29	8.34961
26.295	8.34961
26.3	8.34961
26.305	8.34961
26.31	8.34961
26.315	8.34961
26.32	8.4375
26.325	8.4375
26.33	8.4375
26.335	8.4375
26.34	8.4375
26.345	8.4375
26.35	8.4375
26.355	8.52539
26.36	8.52539
26.365	8.52539
26.37	8.52539
26.375	8.52539
26.38	8.61328
26.385	8.61328
26.39	8.61328
26.395	8.61328
26.4	8.61328
26.405	8.61328
26.41	8.70117
26.415	8.70117
26.42	8.70117
26.425	8.70117
26.43	8.70117
26.435	8.70117
26.44	8.70117
26.445	8.70117
26.45	8.78906
26.455	8.78906
26.46	8.78906
26.465	8.78906
26.47	8.78906
26.475	8.78906
26.48	8.78906
26.485	8.78906
26.49	8.78906
26.495	8.78906
26.5	8.78906
26.505	8.78906
26.51	8.78906
26.515	8.78906
26.52	8.78906
26.525	8.78906
26.53	8.78906
26.535	8.87695
26.54	8.87695
26.545	8.87695
26.55	8.87695
26.555	8.87695
26.56	8.87695
26.565	8.87695
26.57	8.87695
26.575	8.87695
26.58	8.87695
26.585	8.87695
26.59	8.78906
26.595	8.78906
26.6	8.78906
26.605	8.78906
26.61	8.78906
26.615	8.78906
26.62	8.78906
26.625	8.78906
26.63	8.78906
26.635	8.78906
26.64	8.78906
26.645	8.70117
26.65	8.70117
26.655	8.70117
26.66	8.70117
26.665	8.70117
26.67	8.61328
26.675	8.61328
26.68	8.61328
26.685	8.61328
26.69	8.61328
26.695	8.61328
26.7	8.61328
26.705	8.61328
26.71	8.52539
26.715	8.52539
26.72	8.52539
26.725	8.52539
26.73	8.52539
26.735	8.52539
26.74	8.52539
26.745	8.4375
26.75	8.4375
26.755	8.4375
26.76	8.4375
26.765	8.4375
26.77	8.4375
26.775	8.4375
26.78	8.4375
26.785	8.4375
26.79	8.4375
26.795	8.4375
26.8	8.4375
26.805	8.4375
26.81	8.4375
26.815	8.4375
26.82	8.34961
26.825	8.34961
26.83	8.34961
26.835	8.34961
26.84	8.34961
26.845	8.34961
26.85	8.34961
26.855	8.4375
26.86	8.4375
26.865	8.4375
26.87	8.4375
26.875	8.34961
26.88	8.34961
26.885	8.34961
26.89	8.34961
26.895	8.34961
26.9	8.34961
26.905	8.34961
26.91	8.34961
26.915	8.34961
26.92	8.34961
26.925	8.34961
26.93	8.34961
26.935	8.34961
26.94	8.34961
26.945	8.4375
26.95	8.34961
26.955	8.34961
26.96	8.4375
26.965	8.34961
26.97	8.34961
26.975	8.34961
26.98	8.34961
26.985	8.34961
26.99	8.34961
26.995	8.34961
27	8.34961
27.005	8.34961
27.01	8.34961
27.015	8.34961
27.02	8.34961
27.025	8.34961
27.03	8.34961
27.035	8.34961
27.04	8.34961
27.045	8.34961
27.05	8.34961
27.055	8.34961
27.06	8.34961
27.065	8.34961
27.07	8.34961
27.075	8.34961
27.08	8.34961
27.085	8.34961
27.09	8.34961
27.095	8.34961
27.1	8.26172
27.105	8.26172
27.11	8.26172
27.115	8.26172
27.12	8.26172
27.125	8.26172
27.13	8.26172
27.135	8.26172
27.14	8.26172
27.145	8.26172
27.15	8.26172
27.155	8.17383
27.16	8.17383
27.165	8.17383
27.17	8.17383
27.175	8.17383
27.18	8.17383
27.185	8.17383
27.19	8.17383
27.195	8.08594
27.2	8.08594
27.205	8.08594
27.21	8.08594
27.215	8.08594
27.22	8.08594
27.225	7.99805
27.23	7.99805
27.235	7.99805
27.24	7.99805
27.245	7.99805
27.25	7.91016
27.255	7.91016
27.26	7.91016
27.265	7.91016
27.27	7.91016
27.275	7.91016
27.28	7.91016
27.285	7.82227
27.29	7.82227
27.295	7.82227
27.3	7.82227
27.305	7.82227
27.31	7.82227
27.315	7.73437
27.32	7.73437
27.325	7.73437
27.33	7.73437
27.335	7.73437
27.34	7.73437
27.345	7.73437
27.35	7.73437
27.355	7.73437
27.36	7.73437
27.365	7.64648
27.37	7.64648
27.375	7.64648
27.38	7.64648
27.385	7.64648
27.39	7.64648
27.395	7.55859
27.4	7.55859
27.405	7.55859
27.41	7.55859
27.415	7.55859
27.42	7.55859
27.425	7.55859
27.43	7.55859
27.435	7.55859
27.44	7.55859
27.445	7.55859
27.45	7.4707
27.455	7.4707
27.46	7.4707
27.465	7.4707
27.47	7.4707
27.475	7.4707
27.48	7.4707
27.485	7.4707
27.49	7.4707
27.495	7.4707
27.5	7.4707
27.505	7.4707
27.51	7.4707
27.515	7.4707
27.52	7.4707
27.525	7.4707
27.53	7.4707
27.535	7.4707
27.54	7.4707
27.545	7.4707
27.55	7.4707
27.555	7.4707
27.56	7.4707
27.565	7.4707
27.57	7.4707
27.575	7.4707
27.58	7.4707
27.585	7.4707
27.59	7.4707
27.595	7.4707
27.6	7.4707
27.605	7.4707
27.61	7.4707
27.615	7.4707
27.62	7.4707
27.625	7.4707
27.63	7.4707
27.635	7.55859
27.64	7.4707
27.645	7.55859
27.65	7.55859
27.655	7.55859
27.66	7.55859
27.665	7.55859
27.67	7.55859
27.675	7.55859
27.68	7.55859
27.685	7.55859
27.69	7.55859
27.695	7.55859
27.7	7.55859
27.705	7.55859
27.71	7.55859
27.715	7.55859
27.72	7.55859
27.725	7.55859
27.73	7.55859
27.735	7.55859
27.74	7.55859
27.745	7.55859
27.75	7.55859
27.755	7.55859
27.76	7.55859
27.765	7.55859
27.77	7.55859
27.775	7.55859
27.78	7.55859
27.785	7.55859
27.79	7.55859
27.795	7.55859
27.8	7.55859
27.805	7.55859
27.81	7.55859
27.815	7.55859
27.82	7.64648
27.825	7.64648
27.83	7.64648
27.835	7.64648
27.84	7.64648
27.845	7.64648
27.85	7.64648
27.855	7.64648
27.86	7.64648
27.865	7.64648
27.87	7.64648
27.875	7.64648
27.88	7.64648
27.885	7.64648
27.89	7.64648
27.895	7.64648
27.9	7.64648
27.905	7.73437
27.91	7.64648
27.915	7.64648
27.92	7.73437
27.925	7.64648
27.93	7.73437
27.935	7.73437
27.94	7.73437
27.945	7.73437
27.95	7.73437
27.955	7.73437
27.96	7.73437
27.965	7.73437
27.97	7.73437
27.975	7.73437
27.98	7.73437
27.985	7.73437
27.99	7.73437
27.995	7.73437
28	7.73437
28.005	7.73437
28.01	7.73437
28.015	7.73437
28.02	7.82227
28.025	7.82227
28.03	7.82227
28.035	7.82227
28.04	7.82227
28.045	7.82227
28.05	7.82227
28.055	7.82227
28.06	7.82227
28.065	7.82227
28.07	7.82227
28.075	7.82227
28.08	7.82227
28.085	7.82227
28.09	7.82227
28.095	7.91016
28.1	7.91016
28.105	7.91016
28.11	7.91016
28.115	7.91016
28.12	7.91016
28.125	7.91016
28.13	7.91016
28.135	7.91016
28.14	7.91016
28.145	7.91016
28.15	7.91016
28.155	7.91016
28.16	7.91016
28.165	7.99805
28.17	7.99805
28.175	7.99805
28.18	7.99805
28.185	7.99805
28.19	7.99805
28.195	7.99805
28.2	7.99805
28.205	7.99805
28.21	7.99805
28.215	7.99805
28.22	8.08594
28.225	8.08594
28.23	8.08594
28.235	8.08594
28.24	8.08594
28.245	8.08594
28.25	8.08594
28.255	8.08594
28.26	8.08594
28.265	8.08594
28.27	8.08594
28.275	8.08594
28.28	8.08594
28.285	8.08594
28.29	8.08594
28.295	8.17383
28.3	8.17383
28.305	8.17383
28.31	8.17383
28.315	8.17383
28.32	8.17383
28.325	8.17383
28.33	8.17383
28.335	8.17383
28.34	8.17383
28.345	8.17383
28.35	8.17383
28.355	8.17383
28.36	8.17383
28.365	8.17383
28.37	8.17383
28.375	8.26172
28.38	8.26172
28.385	8.17383
28.39	8.26172
28.395	8.26172
28.4	8.26172
28.405	8.26172
28.41	8.26172
28.415	8.26172
28.42	8.26172
28.425	8.26172
28.43	8.26172
28.435	8.26172
28.44	8.26172
28.445	8.26172
28.45	8.26172
28.455	8.26172
28.46	8.26172
28.465	8.26172
28.47	8.26172
28.475	8.26172
28.48	8.26172
28.485	8.34961
28.49	8.26172
28.495	8.26172
28.5	8.34961
28.505	8.26172
28.51	8.34961
28.515	8.26172
28.52	8.34961
28.525	8.34961
28.53	8.34961
28.535	8.34961
28.54	8.34961
28.545	8.34961
28.55	8.34961
28.555	8.34961
28.56	8.34961
28.565	8.34961
28.57	8.34961
28.575	8.34961
28.58	8.34961
28.585	8.34961
28.59	8.26172
28.595	8.34961
28.6	8.26172
28.605	8.34961
28.61	8.26172
28.615	8.26172
28.62	8.26172
28.625	8.26172
28.63	8.26172
28.635	8.26172
28.64	8.26172
28.645	8.26172
28.65	8.26172
28.655	8.26172
28.66	8.26172
28.665	8.26172
28.67	8.26172
28.675	8.26172
28.68	8.26172
28.685	8.26172
28.69	8.26172
28.695	8.26172
28.7	8.26172
28.705	8.26172
28.71	8.26172
28.715	8.26172
28.72	8.26172
28.725	8.26172
28.73	8.17383
28.735	8.26172
28.74	8.17383
28.745	8.17383
28.75	8.26172
28.755	8.17383
28.76	8.17383
28.765	8.17383
28.77	8.17383
28.775	8.17383
28.78	8.17383
28.785	8.17383
28.79	8.17383
28.795	8.17383
28.8	8.17383
28.805	8.17383
28.81	8.17383
28.815	8.17383
28.82	8.17383
28.825	8.17383
28.83	8.17383
28.835	8.17383
28.84	8.17383
28.845	8.17383
28.85	8.17383
28.855	8.17383
28.86	8.17383
28.865	8.17383
28.87	8.17383
28.875	8.17383
28.88	8.17383
28.885	8.17383
28.89	8.17383
28.895	8.17383
28.9	8.17383
28.905	8.17383
28.91	8.17383
28.915	8.17383
28.92	8.17383
28.925	8.17383
28.93	8.17383
28.935	8.17383
28.94	8.17383
28.945	8.17383
28.95	8.17383
28.955	8.17383
28.96	8.17383
28.965	8.17383
28.97	8.17383
28.975	8.17383
28.98	8.17383
28.985	8.17383
28.99	8.17383
28.995	8.17383
29	8.26172
29.005	8.26172
29.01	8.26172
29.015	8.26172
29.02	8.26172
29.025	8.26172
29.03	8.26172
29.035	8.26172
29.04	8.26172
29.045	8.26172
29.05	8.26172
29.055	8.26172
29.06	8.26172
29.065	8.26172
29.07	8.26172
29.075	8.26172
29.08	8.26172
29.085	8.26172
29.09	8.26172
29.095	8.17383
29.1	8.26172
29.105	8.26172
29.11	8.17383
29.115	8.26172
29.12	8.17383
29.125	8.17383
29.13	8.17383
29.135	8.17383
29.14	8.17383
29.145	8.17383
29.15	8.17383
29.155	8.17383
29.16	8.17383
29.165	8.17383
29.17	8.17383
29.175	8.17383
29.18	8.17383
29.185	8.17383
29.19	8.17383
29.195	8.17383
29.2	8.17383
29.205	8.17383
29.21	8.08594
29.215	8.08594
29.22	8.08594
29.225	8.08594
29.23	8.08594
29.235	8.08594
29.24	8.08594
29.245	8.08594
29.25	8.08594
29.255	8.08594
29.26	8.08594
29.265	8.08594
29.27	8.08594
29.275	8.08594
29.28	8.08594
29.285	8.08594
29.29	8.08594
29.295	8.08594
29.3	8.08594
29.305	8.08594
29.31	8.08594
29.315	8.08594
29.32	8.08594
29.325	8.08594
29.33	8.08594
29.335	8.08594
29.34	8.08594
29.345	8.08594
29.35	8.08594
29.355	8.08594
29.36	8.08594
29.365	8.08594
29.37	8.08594
29.375	8.08594
29.38	8.08594
29.385	8.08594
29.39	8.08594
29.395	8.17383
29.4	8.08594
29.405	8.17383
29.41	8.17383
29.415	8.17383
29.42	8.17383
29.425	8.17383
29.43	8.17383
29.435	8.17383
29.44	8.17383
29.445	8.17383
29.45	8.17383
29.455	8.17383
29.46	8.17383
29.465	8.17383
29.47	8.17383
29.475	8.17383
29.48	8.17383
29.485	8.17383
29.49	8.17383
29.495	8.17383
29.5	8.26172
29.505	8.26172
29.51	8.26172
29.515	8.26172
29.52	8.26172
29.525	8.26172
29.53	8.26172
29.535	8.26172
29.54	8.26172
29.545	8.26172
29.55	8.26172
29.555	8.26172
29.56	8.26172
29.565	8.26172
29.57	8.26172
29.575	8.26172
29.58	8.26172
29.585	8.26172
29.59	8.26172
29.595	8.26172
29.6	8.26172
29.605	8.17383
29.61	8.26172
29.615	8.17383
29.62	8.17383
29.625	8.17383
29.63	8.17383
29.635	8.17383
29.64	8.17383
29.645	8.17383
29.65	8.17383
29.655	8.17383
29.66	8.17383
29.665	8.17383
29.67	8.17383
29.675	8.17383
29.68	8.17383
29.685	8.17383
29.69	8.26172
29.695	8.17383
29.7	8.26172
29.705	8.17383
29.71	8.26172
29.715	8.17383
29.72	8.17383
29.725	8.26172
29.73	8.17383
29.735	8.26172
29.74	8.26172
29.745	8.26172
29.75	8.26172
29.755	8.26172
29.76	8.26172
29.765	8.26172
29.77	8.26172
29.775	8.26172
29.78	8.26172
29.785	8.26172
29.79	8.26172
29.795	8.26172
29.8	8.26172
29.805	8.26172
29.81	8.26172
29.815	8.26172
29.82	8.26172
29.825	8.26172
29.83	8.26172
29.835	8.26172
29.84	8.26172
29.845	8.17383
29.85	8.26172
29.855	8.26172
29.86	8.17383
29.865	8.17383
29.87	8.17383
29.875	8.17383
29.88	8.17383
29.885	8.17383
29.89	8.17383
29.895	8.17383
29.9	8.17383
29.905	8.17383
29.91	8.17383
29.915	8.17383
29.92	8.17383
29.925	8.17383
29.93	8.17383
29.935	8.17383
29.94	8.17383
29.945	8.17383
29.95	8.17383
29.955	8.17383
29.96	8.17383
29.965	8.17383
29.97	8.17383
29.975	8.17383
29.98	8.17383
29.985	8.17383
29.99	8.17383
29.995	8.17383
30	8.17383
30.005	8.17383
30.01	8.17383
30.015	8.17383
30.02	8.17383
30.025	8.26172
30.03	8.26172
30.035	8.26172
30.04	8.26172
30.045	8.17383
30.05	8.26172
30.055	8.17383
30.06	8.17383
30.065	8.26172
30.07	8.17383
30.075	8.17383
30.08	8.17383
30.085	8.17383
30.09	8.17383
30.095	8.17383
30.1	8.26172
30.105	8.26172
30.11	8.26172
30.115	8.17383
30.12	8.17383
30.125	8.17383
30.13	8.17383
30.135	8.17383
30.14	8.17383
30.145	8.17383
30.15	8.17383
30.155	8.17383
30.16	8.08594
30.165	8.08594
30.17	8.08594
30.175	8.08594
30.18	8.08594
30.185	8.08594
30.19	7.99805
30.195	7.99805
30.2	7.99805
30.205	7.91016
30.21	7.91016
30.215	7.82227
30.22	7.82227
30.225	7.82227
30.23	7.73437
30.235	7.64648
30.24	7.64648
30.245	7.55859
30.25	7.55859
30.255	7.4707
30.26	7.4707
30.265	7.38281
30.27	7.38281
30.275	7.29492
30.28	7.29492
30.285	7.20703
30.29	7.11914
30.295	7.11914
30.3	7.03125
30.305	7.03125
30.31	6.94336
30.315	6.85547
30.32	6.85547
30.325	6.85547
30.33	6.76758
30.335	6.67969
30.34	6.67969
30.345	6.5918
30.35	6.5918
30.355	6.5918
30.36	6.50391
30.365	6.50391
30.37	6.41602
30.375	6.41602
30.38	6.41602
30.385	6.32812
30.39	6.32812
30.395	6.32812
30.4	6.32812
30.405	6.32812
30.41	6.32812
30.415	6.32812
30.42	6.32812
30.425	6.32812
30.43	6.32812
30.435	6.32812
30.44	6.32812
30.445	6.32812
30.45	6.41602
30.455	6.41602
30.46	6.41602
30.465	6.50391
30.47	6.41602
30.475	6.50391
30.48	6.5918
30.485	6.5918
30.49	6.67969
30.495	6.76758
30.5	6.76758
30.505	7.03125
30.51	7.03125
30.515	7.11914
30.52	7.20703
30.525	7.20703
30.53	7.29492
30.535	7.4707
30.54	7.55859
30.545	7.55859
30.55	7.73437
30.555	7.73437
30.56	7.82227
30.565	8.08594
30.57	8.08594
30.575	8.26172
30.58	8.34961
30.585	8.4375
30.59	8.52539
30.595	8.61328
30.6	8.78906
30.605	8.78906
30.61	8.87695
30.615	8.96484
30.62	9.05273
30.625	9.05273
30.63	9.14063
30.635	9.22852
30.64	9.22852
30.645	9.31641
30.65	9.31641
30.655	9.31641
30.66	9.4043
30.665	9.4043
30.67	9.4043
30.675	9.4043
30.68	9.49219
30.685	9.49219
30.69	9.58008
30.695	9.58008
30.7	9.58008
30.705	9.58008
30.71	9.58008
30.715	9.58008
30.72	9.58008
30.725	9.58008
30.73	9.49219
30.735	9.49219
30.74	9.49219
30.745	9.49219
30.75	9.49219
30.755	9.49219
30.76	9.49219
30.765	9.49219
30.77	9.49219
30.775	9.49219
30.78	9.4043
30.785	9.4043
30.79	9.31641
30.795	9.31641
30.8	9.31641
30.805	9.31641
30.81	9.22852
30.815	9.22852
30.82	9.14063
30.825	9.14063
30.83	9.05273
30.835	9.05273
30.84	9.05273
30.845	8.96484
30.85	8.96484
30.855	8.87695
30.86	8.87695
30.865	8.78906
30.87	8.78906
30.875	8.70117
30.88	8.61328
30.885	8.52539
30.89	8.4375
30.895	8.4375
30.9	8.4375
30.905	8.34961
30.91	8.34961
30.915	8.26172
30.92	8.26172
30.925	8.26172
30.93	8.17383
30.935	8.08594
30.94	8.08594
30.945	7.99805
30.95	7.99805
30.955	7.99805
30.96	7.91016
30.965	7.91016
30.97	7.91016
30.975	7.82227
30.98	7.82227
30.985	7.73437
30.99	7.73437
30.995	7.73437
31	7.73437
31.005	7.73437
31.01	7.73437
31.015	7.73437
31.02	7.73437
31.025	7.73437
31.03	7.73437
31.035	7.73437
31.04	7.73437
31.045	7.73437
31.05	7.73437
31.055	7.73437
31.06	7.73437
31.065	7.73437
31.07	7.73437
31.075	7.64648
31.08	7.64648
31.085	7.64648
31.09	7.64648
31.095	7.64648
31.1	7.64648
31.105	7.73437
31.11	7.73437
31.115	7.73437
31.12	7.73437
31.125	7.73437
31.13	7.73437
31.135	7.73437
31.14	7.82227
31.145	7.82227
31.15	7.73437
31.155	7.73437
31.16	7.73437
31.165	7.73437
31.17	7.82227
31.175	7.82227
31.18	7.82227
31.185	7.82227
31.19	7.82227
31.195	7.82227
31.2	7.91016
31.205	7.91016
31.21	7.91016
31.215	7.91016
31.22	7.91016
31.225	7.91016
31.23	7.91016
31.235	7.91016
31.24	7.91016
31.245	7.91016
31.25	7.91016
31.255	7.91016
31.26	7.91016
31.265	7.91016
31.27	7.91016
31.275	7.91016
31.28	7.91016
31.285	7.91016
31.29	7.99805
31.295	7.99805
31.3	7.99805
31.305	7.91016
31.31	7.91016
31.315	7.91016
31.32	7.91016
31.325	7.91016
31.33	7.91016
31.335	7.91016
31.34	7.91016
31.345	7.91016
31.35	7.91016
31.355	7.91016
31.36	7.91016
31.365	7.91016
31.37	7.91016
31.375	7.91016
31.38	7.91016
31.385	7.91016
31.39	7.91016
31.395	7.91016
31.4	7.82227
31.405	7.82227
31.41	7.82227
31.415	7.82227
31.42	7.82227
31.425	7.82227
31.43	7.82227
31.435	7.82227
31.44	7.82227
31.445	7.82227
31.45	7.73437
31.455	7.73437
31.46	7.73437
31.465	7.73437
31.47	7.73437
31.475	7.73437
31.48	7.73437
31.485	7.73437
31.49	7.73437
31.495	7.64648
31.5	7.64648
31.505	7.64648
31.51	7.64648
31.515	7.64648
31.52	7.64648
31.525	7.64648
31.53	7.64648
31.535	7.64648
31.54	7.64648
31.545	7.64648
31.55	7.64648
31.555	7.55859
31.56	7.55859
31.565	7.64648
31.57	7.55859
31.575	7.55859
31.58	7.55859
31.585	7.55859
31.59	7.55859
31.595	7.55859
31.6	7.55859
31.605	7.55859
31.61	7.55859
31.615	7.55859
31.62	7.55859
31.625	7.55859
31.63	7.4707
31.635	7.4707
31.64	7.55859
31.645	7.55859
31.65	7.4707
31.655	7.4707
31.66	7.4707
31.665	7.4707
31.67	7.4707
31.675	7.4707
31.68	7.4707
31.685	7.4707
31.69	7.4707
31.695	7.4707
31.7	7.4707
31.705	7.4707
31.71	7.4707
31.715	7.4707
31.72	7.4707
31.725	7.4707
31.73	7.4707
31.735	7.4707
31.74	7.4707
31.745	7.4707
31.75	7.4707
31.755	7.4707
31.76	7.4707
31.765	7.4707
31.77	7.4707
31.775	7.4707
31.78	7.38281
31.785	7.38281
31.79	7.38281
31.795	7.4707
31.8	7.4707
31.805	7.4707
31.81	7.4707
31.815	7.4707
31.82	7.4707
31.825	7.55859
31.83	7.4707
31.835	7.55859
31.84	7.55859
31.845	7.4707
31.85	7.4707
31.855	7.4707
31.86	7.4707
31.865	7.4707
31.87	7.4707
31.875	7.4707
31.88	7.4707
31.885	7.55859
31.89	7.4707
31.895	7.4707
31.9	7.55859
31.905	7.55859
31.91	7.55859
31.915	7.55859
31.92	7.55859
31.925	7.55859
31.93	7.55859
31.935	7.55859
31.94	7.55859
31.945	7.55859
31.95	7.55859
31.955	7.55859
31.96	7.55859
31.965	7.55859
31.97	7.55859
31.975	7.55859
31.98	7.55859
31.985	7.55859
31.99	7.55859
31.995	7.55859
32	7.55859
32.005	7.55859
32.01	7.55859
32.015	7.64648
32.02	7.64648
32.025	7.64648
32.03	7.55859
32.035	7.55859
32.04	7.55859
32.045	7.55859
32.05	7.64648
32.055	7.64648
32.06	7.64648
32.065	7.64648
32.07	7.64648
32.075	7.64648
32.08	7.64648
32.085	7.64648
32.09	7.64648
32.095	7.64648
32.1	7.64648
32.105	7.64648
32.11	7.64648
32.115	7.64648
32.12	7.64648
32.125	7.64648
32.13	7.64648
32.135	7.64648
32.14	7.64648
32.145	7.64648
32.15	7.64648
32.155	7.64648
32.16	7.64648
32.165	7.64648
32.17	7.64648
32.175	7.73437
32.18	7.73437
32.185	7.73437
32.19	7.73437
32.195	7.73437
32.2	7.73437
32.205	7.73437
32.21	7.73437
32.215	7.73437
32.22	7.73437
32.225	7.73437
32.23	7.73437
32.235	7.73437
32.24	7.73437
32.245	7.73437
32.25	7.73437
32.255	7.73437
32.26	7.73437
32.265	7.73437
32.27	7.82227
32.275	7.73437
32.28	7.82227
32.285	7.82227
32.29	7.73437
32.295	7.73437
32.3	7.73437
32.305	7.73437
32.31	7.73437
32.315	7.73437
32.32	7.73437
32.325	7.73437
32.33	7.73437
32.335	7.73437
32.34	7.82227
32.345	7.82227
32.35	7.82227
32.355	7.82227
32.36	7.82227
32.365	7.91016
32.37	7.82227
32.375	7.82227
32.38	7.82227
32.385	7.82227
32.39	7.82227
32.395	7.82227
