time (s) - Front Motor	Motor Voltage (V) - Front Motor	time (s) - Back Motor	Motor Voltage (V) - Back Motor
0	519.962	0	523.977
0.005	394.613	0.005	397.855
0.01	300.222	0.01	303.649
0.015	228.808	0.015	233.625
0.02	176.26	0.02	180.1
0.025	136.472	0.025	140.343
0.03	106.634	0.03	110.529
0.035	84.2588	0.035	88.1721
0.04	67.4813	0.04	71.4087
0.045	54.9018	0.045	58.8402
0.05	45.4707	0.05	49.4179
0.055	38.401	0.055	42.3552
0.06	33.1023	0.06	37.0622
0.065	29.1319	0.065	33.0964
0.07	25.5322	0.07	30.7517
0.075	23.0724	0.075	28.7608
0.08	21.613	0.08	26.8898
0.085	20.522	0.085	25.4906
0.09	19.7074	0.09	24.4453
0.095	19.1	0.095	23.6653
0.1	18.0226	0.1	23.7098
0.105	17.8414	0.105	23.124
0.11	17.7091	0.11	22.6887
0.115	18.0004	0.115	21.9793
0.12	17.8406	0.12	21.8331
0.125	17.7244	0.125	21.7275
0.13	17.0153	0.13	22.2779
0.135	15.832	0.135	20.019
0.14	16.217	0.14	20.3617
0.145	16.5094	0.145	20.6227
0.15	16.7323	0.15	20.8225
0.155	15.2376	0.155	19.311
0.16	15.7711	0.16	19.8322
0.165	15.7877	0.165	20.6141
0.17	16.1857	0.17	20.8226
0.175	14.5838	0.175	19.5562
0.18	15.9037	0.18	19.3943
0.185	16.2738	0.185	19.9002
0.19	14.2641	0.19	19.2437
0.195	15.4215	0.195	19.3959
0.2	16.5366	0.2	19.2704
0.205	14.4624	0.205	18.7636
0.21	13.5189	0.21	17.7497
0.215	14.8527	0.215	18.2572
0.22	13.8092	0.22	17.3581
0.225	15.3064	0.225	17.7132
0.23	13.5187	0.23	17.5667
0.235	13.4155	0.235	16.1975
0.24	14.3692	0.24	17.4486
0.245	13.4225	0.245	16.7255
0.25	13.0883	0.25	15.7855
0.255	14.1101	0.255	17.1171
0.26	11.936	0.26	14.4018
0.265	13.2286	0.265	16.0529
0.27	13.5485	0.27	14.6171
0.275	12.7721	0.275	14.5347
0.28	12.5656	0.28	14.0752
0.285	10.9777	0.285	11.8108
0.29	11.6045	0.29	14.9052
0.295	12.5281	0.295	13.4487
0.3	9.25767	0.3	9.63578
0.305	10.2734	0.305	13.2197
0.31	9.82326	0.31	10.4647
0.315	10.2656	0.315	10.8981
0.32	10.8295	0.32	10.9686
0.325	9.75381	0.325	12.4978
0.33	8.49434	0.33	7.41336
0.335	8.82977	0.335	8.90105
0.34	8.83131	0.34	10.2443
0.345	8.40938	0.345	8.32142
0.35	8.3127	0.35	6.60782
0.355	10.0598	0.355	10.1128
0.36	5.72676	0.36	5.06803
0.365	6.23981	0.365	4.07326
0.37	6.39177	0.37	6.83882
0.375	2.86749	0.375	-0.794966
0.38	3.79842	0.38	3.0895
0.385	1.89817	0.385	-1.41435
0.39	0.701035	0.39	-1.79991
0.395	1.81963	0.395	-0.856271
0.4	3.11928	0.4	-0.661857
0.405	4.24779	0.405	2.6083
0.41	3.39209	0.41	0.0777035
0.415	4.41444	0.415	3.09538
0.42	3.86599	0.42	-0.0116071
0.425	4.97537	0.425	2.71703
0.43	6.18212	0.43	4.36477
0.435	4.13619	0.435	1.86593
0.44	5.51444	0.44	3.6585
0.445	3.59704	0.445	1.26822
0.45	5.6971	0.45	2.51664
0.455	4.97617	0.455	2.39378
0.46	4.41361	0.46	2.27005
0.465	5.6352	0.465	3.81101
0.47	4.87859	0.47	3.28419
0.475	5.95458	0.475	4.52278
0.48	7.37958	0.48	4.80904
0.485	6.15219	0.485	3.96438
0.49	2.65271	0.49	-0.805563
0.495	4.20946	0.495	1.31605
0.5	5.3694	0.5	2.8899
0.505	4.56632	0.505	2.38751
0.51	5.60723	0.51	3.64419
0.515	6.38022	0.515	4.56927
0.52	4.39534	0.52	1.14094
0.525	6.06245	0.525	1.99221
0.53	6.68173	0.53	3.23641
0.535	2.52913	0.535	-1.23114
0.54	2.31221	0.54	-0.930275
0.545	3.13952	0.545	-1.74923
0.55	4.3978	0.55	0.274885
0.555	3.66813	0.555	0.109846
0.56	3.48531	0.56	-0.433147
0.565	2.94376	0.565	-0.490832
0.57	3.79345	0.57	1.4859
0.575	4.80447	0.575	2.56873
0.58	4.27616	0.58	1.31063
0.585	5.14077	0.585	2.38189
0.59	2.8372	0.59	-0.550337
0.595	4.02119	0.595	0.91615
0.6	5.28786	0.6	1.61106
0.605	2.90387	0.605	-1.22167
0.61	4.26598	0.61	0.0808084
0.615	5.0378	0.615	1.28097
0.62	1.38598	0.62	-3.60713
0.625	2.82761	0.625	-1.57499
0.63	3.90035	0.63	-0.0691173
0.635	2.13951	0.635	-3.06264
0.64	3.34839	0.64	-1.26057
0.645	1.30262	0.645	-3.64508
0.65	2.67958	0.65	-1.76818
0.655	3.70366	0.655	-0.378912
0.66	3.18459	0.66	-1.40772
0.665	4.44256	0.665	-0.551966
0.67	4.99545	0.67	0.45324
0.675	2.45752	0.675	-2.52909
0.68	3.46519	0.68	-1.10074
0.685	2.93367	0.685	-2.10038
0.69	3.79519	0.69	-0.835971
0.695	4.43246	0.695	0.0937119
0.7	3.23611	0.7	-0.89307
0.705	4.60629	0.705	-0.626428
0.71	5.00169	0.71	0.17812
0.715	3.38533	0.715	-0.664056
0.72	4.05636	0.72	0.0950362
0.725	4.55059	0.725	0.645574
0.73	4.64619	0.73	-2.02509
0.735	4.3472	0.735	-0.383556
0.74	4.73713	0.74	0.205467
0.745	3.35505	0.745	-1.03704
0.75	3.96021	0.75	-0.336942
0.755	6.07029	0.755	1.83459
0.76	3.04893	0.76	-1.92432
0.765	3.69358	0.765	-1.07885
0.77	5.8332	0.77	1.20164
0.775	5.12479	0.775	-1.43572
0.78	5.22994	0.78	-0.776759
0.785	5.29948	0.785	-0.301608
0.79	4.06385	0.79	-2.01668
0.795	4.39677	0.795	-1.28935
0.8	4.25012	0.8	-0.37605
0.805	3.62108	0.805	-2.5314
0.81	4.027	0.81	-1.75249
0.815	4.70892	0.815	-1.57448
0.82	4.829	0.82	-1.07834
0.825	4.90955	0.825	-0.725506
0.83	3.68198	0.83	-2.5325
0.835	5.68616	0.835	-0.208911
0.84	5.52883	0.84	-0.13643
0.845	4.12279	0.845	-2.15375
0.85	4.32767	0.85	-1.65336
0.855	6.13707	0.855	0.367935
0.86	3.27669	0.86	-3.89107
0.865	5.32515	0.865	-1.37386
0.87	5.2009	0.87	-1.1563
0.875	5.48493	0.875	-1.39955
0.88	5.30635	0.88	-1.21961
0.885	5.16265	0.885	-1.10417
0.89	5.43204	0.89	-1.42407
0.895	5.24242	0.895	-1.30167
0.9	5.47734	0.9	-1.61639
0.905	5.26182	0.905	-1.49015
0.91	4.70338	0.91	-1.02813
0.915	5.04348	0.915	-1.47005
0.92	4.9068	0.92	-1.43927
0.925	6.45977	0.925	0.229543
0.93	5.96369	0.93	-0.189402
0.935	5.58169	0.935	-0.523293
0.94	6.95064	0.94	0.871983
0.945	6.70345	0.945	-0.139102
0.95	5.73928	0.95	-0.148325
0.955	5.38802	0.955	-0.556849
0.96	5.50151	0.96	-1.26995
0.965	6.86014	0.965	0.222711
0.97	6.60513	0.97	-0.715413
0.975	6.02195	0.975	-1.05694
0.98	6.85296	0.98	0.719442
0.985	6.58406	0.985	-0.387794
0.99	5.99044	0.99	-0.856192
0.995	6.81356	0.995	0.824997
1	6.53872	1	-0.353672
1.005	5.55365	1.005	-0.488737
1.01	5.57351	1.01	-1.37874
1.015	7.48726	1.015	-0.644376
1.02	6.25129	1.02	-0.75419
1.025	7.74835	1.025	0.0401009
1.03	6.8282	1.03	-0.653142
1.035	7.79328	1.035	0.47237
1.04	6.856	1.04	-0.354341
1.045	6.14281	1.045	-0.994347
1.05	6.87614	1.05	0.558002
1.055	7.81226	1.055	1.33491
1.06	6.46627	1.06	0.633656
1.065	7.49378	1.065	1.37124
1.07	8.26866	1.07	1.91891
1.075	7.18867	1.075	0.65877
1.08	8.27233	1.08	1.1205
1.085	7.56944	1.085	-0.349672
1.09	7.92857	1.09	0.961861
1.095	6.91859	1.095	-0.107297
1.1	7.42923	1.1	1.12311
1.105	7.81133	1.105	2.04543
1.11	6.81856	1.11	0.684345
1.115	8.35452	1.115	0.68336
1.12	8.50044	1.12	1.68725
1.125	7.33052	1.125	0.387329
1.13	7.72118	1.13	1.44462
1.135	6.73479	1.135	0.184723
1.14	7.88856	1.14	0.646535
1.145	8.12967	1.145	1.61562
1.15	8.30955	1.15	2.3419
1.155	7.16506	1.155	0.833718
1.16	7.57476	1.16	1.73478
1.165	7.88106	1.165	2.41001
1.17	8.10982	1.17	2.91588
1.175	8.9059	1.175	2.66923
1.18	8.87872	1.18	3.10696
1.185	7.19198	1.185	1.76929
1.19	8.2023	1.19	1.79087
1.195	8.33579	1.195	2.42975
1.2	8.43492	1.2	2.90832
1.205	8.50829	1.205	3.26667
1.21	9.1878	1.21	2.90936
1.215	9.07319	1.215	3.26407
1.22	6.9339	1.22	2.25107
1.225	7.36118	1.225	2.75975
1.23	7.68064	1.23	3.14065
1.235	8.54472	1.235	2.80024
1.24	8.18155	1.24	3.55455
1.245	8.29004	1.245	3.73781
1.25	8.37041	1.25	3.87466
1.255	8.66821	1.255	3.73815
1.26	8.64916	1.26	3.87657
1.265	8.24692	1.265	4.36673
1.27	8.3261	1.27	4.35188
1.275	8.62302	1.275	4.1016
1.28	8.60331	1.28	4.15469
1.285	8.20057	1.285	4.58085
1.29	8.27939	1.29	4.518
1.295	8.57603	1.295	4.23172
1.3	8.55611	1.3	4.25781
1.305	8.15322	1.305	4.66372
1.31	8.47045	1.31	4.34715
1.315	8.07903	1.315	4.73746
1.32	8.40486	1.32	4.40919
1.325	8.01988	1.325	4.79073
1.33	7.9636	1.33	4.84283
1.335	8.06085	1.335	4.74083
1.34	7.74585	1.34	5.05067
1.345	9.0205	1.345	7.10133
1.35	9.08548	1.35	6.22698
1.355	8.50488	1.355	6.19898
1.36	7.76656	1.36	6.4793
1.365	7.48767	1.365	6.4131
1.37	7.27245	1.37	6.36794
1.375	8.8605	1.375	7.91384
1.38	8.29366	1.38	7.52782
1.385	7.8625	1.385	7.24281
1.39	7.62321	1.39	6.94343
1.395	6.94982	1.395	7.2113
1.4	8.72455	1.4	8.4617
1.405	8.39581	1.405	7.756
1.41	7.90184	1.41	7.47265
1.415	8.26844	1.415	9.85236
1.42	8.41618	1.42	8.46112
1.425	7.89772	1.425	8.04549
1.43	9.2584	1.43	9.31359
1.435	8.5211	1.435	8.71927
1.44	7.57522	1.44	8.66503
1.445	6.94487	1.445	8.54387
1.45	9.03794	1.45	9.21655
1.455	7.94068	1.455	9.08495
1.46	7.19683	1.46	8.90579
1.465	8.57931	1.465	10.1605
1.47	8.19789	1.47	9.21663
1.475	7.51608	1.475	8.90316
1.48	7.37779	1.48	8.29365
1.485	8.30519	1.485	10.1349
1.49	8.20288	1.49	9.01053
1.495	7.25048	1.495	9.04166
1.5	8.28072	1.5	10.65
1.505	7.91608	1.505	9.69046
1.51	7.39531	1.51	9.21686
1.515	8.21901	1.515	10.9769
1.52	7.83994	1.52	9.99079
1.525	9.0639	1.525	11.0725
1.53	7.83724	1.53	10.7255
1.535	7.53181	1.535	9.84941
1.54	9.19796	1.54	10.6268
1.545	8.30806	1.545	10.0464
1.55	7.87335	1.55	9.37721
1.555	9.05561	1.555	10.6967
1.56	8.42321	1.56	9.9025
1.565	7.94025	1.565	9.31442
1.57	9.08635	1.57	10.6947
1.575	8.81379	1.575	9.55922
1.58	8.21887	1.58	9.09703
1.585	7.76404	1.585	8.75796
1.59	7.41428	1.59	8.51122
1.595	9.19566	1.595	9.61219
1.6	8.34191	1.6	9.32489
1.605	8.22039	1.605	8.58959
1.61	9.25575	1.61	10.2414
1.615	8.90019	1.615	9.30951
1.62	8.24306	1.62	9.00009
1.625	9.88409	1.625	9.96394
1.63	9.35953	1.63	9.13942
1.635	8.96262	1.635	8.52357
1.64	8.89999	1.64	7.82567
1.645	8.22117	1.645	7.93314
1.65	9.75584	1.65	9.29979
1.655	8.86554	1.655	9.06339
1.66	8.57622	1.66	8.50677
1.665	8.83283	1.665	7.61478
1.67	8.53902	1.67	7.43114
1.675	8.31521	1.675	7.29595
1.68	9.42234	1.68	9.24945
1.685	8.98022	1.685	8.68437
1.69	8.25825	1.69	8.65007
1.695	8.95922	1.695	7.38101
1.7	8.61683	1.7	7.29646
1.705	8.35662	1.705	7.2356
1.71	10.062	1.71	8.61936
1.715	8.81976	1.715	8.87575
1.72	8.50799	1.72	8.44734
1.725	9.13476	1.725	7.26459
1.73	8.73676	1.73	7.24477
1.735	8.28644	1.735	7.38088
1.74	8.4727	1.74	6.95812
1.745	7.84019	1.745	7.41242
1.75	7.9828	1.75	7.13531
1.755	8.2319	1.755	6.7845
1.76	9.69886	1.76	8.57121
1.765	8.75786	1.765	8.64987
1.77	8.43061	1.77	8.32958
1.775	8.18179	1.775	8.09193
1.78	8.23033	1.78	7.67774
1.785	8.02196	1.785	7.61107
1.79	8.24926	1.79	7.17669
1.795	8.27303	1.795	6.99681
1.8	8.04608	1.8	7.10587
1.805	7.87251	1.805	7.19023
1.81	7.97749	1.81	7.01754
1.815	7.81146	1.815	7.13198
1.82	9.20055	1.82	9.03419
1.825	8.7286	1.825	8.67208
1.83	8.75824	1.83	8.01612
1.835	9.11086	1.835	7.193
1.84	8.64777	1.84	7.30245
1.845	7.67164	1.845	8.0126
1.85	8.03654	1.85	7.44744
1.855	7.82407	1.855	7.50895
1.86	7.66139	1.86	7.55766
1.865	8.01311	1.865	7.11968
1.87	7.79076	1.87	7.27659
1.875	7.62067	1.875	7.39683
1.88	7.34137	1.88	7.63798
1.885	7.26902	1.885	7.68096
1.89	7.44997	1.89	7.47721
1.895	7.34096	1.895	7.56837
1.9	7.64282	1.9	7.25235
1.905	7.72257	1.905	7.16122
1.91	7.53766	1.91	7.33683
1.915	7.39565	1.915	7.4711
1.92	9.18977	1.92	9.00122
1.925	8.63976	1.925	8.74189
1.93	8.22396	1.93	8.54996
1.935	7.7604	1.935	8.557
1.94	8.17538	1.94	7.7989
1.945	7.86006	1.945	7.85616
1.95	7.47186	1.95	8.05009
1.955	7.31789	1.955	8.05764
1.96	7.19912	1.96	8.06586
1.965	7.3453	1.965	7.83605
1.97	6.58476	1.97	8.53314
1.975	6.87288	1.975	8.19671
1.98	6.84428	1.98	8.18835
1.985	7.2065	1.985	7.79768
1.99	7.33156	1.99	7.65057
1.995	7.18067	1.995	7.7842
2	7.06422	2	7.88697
2.005	8.87755	2.005	9.39346
2.01	8.34198	2.01	9.11641
2.015	7.93706	2.015	8.91118
2.02	7.86865	2.02	8.5213
2.025	7.57269	2.025	8.47286
2.03	7.34746	2.03	8.43909
2.035	7.80078	2.035	7.79084
2.04	7.1273	2.04	8.31744
2.045	7.6263	2.045	7.70759
2.05	7.37403	2.05	7.87604
2.055	7.18158	2.055	8.00493
2.06	6.64706	2.06	8.4911
2.065	7.25028	2.065	7.85094
2.07	6.4507	2.07	8.62212
2.075	7.33506	2.075	7.71577
2.08	7.51737	2.08	7.51629
2.085	7.26899	2.085	7.7511
2.09	7.31802	2.09	7.69121
2.095	7.11015	2.095	7.89025
2.1	6.95101	2.1	8.04208
2.105	7.69245	2.105	7.29447
2.11	9.04601	2.11	9.26639
2.115	8.79404	2.115	8.71004
2.12	8.45852	2.12	8.43867
2.125	7.96226	2.125	8.47911
2.13	7.97382	2.13	8.12505
2.135	7.83595	2.135	8.00538
2.14	7.87489	2.14	7.77265
2.145	7.51904	2.145	7.98251
2.15	7.87442	2.15	7.51698
2.155	7.5145	2.155	7.79365
2.16	8.10537	2.16	7.13969
2.165	7.68066	2.165	7.51644
2.17	7.35893	2.17	7.80155
2.175	8.77984	2.175	9.68332
2.18	8.57841	2.18	9.05937
2.185	9.29326	2.185	7.72486
2.19	8.57969	2.19	7.97309
2.195	7.80281	2.195	8.40035
2.2	7.69692	2.2	8.24341
2.205	7.75989	2.205	7.98272
2.21	7.42208	2.21	8.17162
2.215	7.79105	2.215	7.69037
2.22	7.82829	2.22	7.5683
2.225	7.4712	2.225	7.86117
2.23	7.8257	2.23	7.45789
2.235	7.46515	2.235	7.78124
2.24	7.19158	2.24	8.02631
2.245	6.98325	2.245	8.21265
2.25	7.2108	2.25	7.968
2.255	7.62192	2.255	7.54344
2.26	7.69079	2.26	7.46389
2.265	6.73194	2.265	8.41411
2.27	7.64536	2.27	7.49362
2.275	8.98753	2.275	9.47632
2.28	8.72709	2.28	8.92806
2.285	9.01078	2.285	8.03727
2.29	8.11722	2.29	8.47495
2.295	8.07227	2.295	8.1774
2.3	8.27906	2.3	7.71318
2.305	7.80775	2.305	7.99083
2.31	7.45116	2.31	8.20162
2.315	7.56754	2.315	7.97531
2.32	7.26984	2.32	8.18999
2.325	8.29441	2.325	7.10259
2.33	9.47858	2.33	9.20152
2.335	8.47418	2.335	9.36592
2.34	9.21016	2.34	7.99941
2.345	8.89946	2.345	7.83668
2.35	8.04294	2.35	8.33759
2.355	8.88983	2.355	7.22347
2.36	8.27537	2.36	7.63697
2.365	7.5729	2.365	8.18818
2.37	7.90986	2.37	7.73726
2.375	7.53621	2.375	8.02489
2.38	8.26533	2.38	7.23074
2.385	7.80394	2.385	7.64281
2.39	7.21629	2.39	8.19294
2.395	7.63936	2.395	7.7412
2.4	7.71726	2.4	7.64127
2.405	7.15221	2.405	8.18926
2.41	7.97917	2.41	7.34896
2.415	7.35265	2.415	7.96496
2.42	7.50804	2.42	7.80114
2.425	7.23964	2.425	8.06268
2.43	7.42222	2.43	7.87444
2.435	7.56116	2.435	7.73071
2.44	7.28043	2.44	8.00731
2.445	7.45376	2.445	7.83036
2.45	7.19882	2.45	8.08205
2.455	7.39149	2.455	7.8864
2.46	7.15106	2.46	8.12407
2.465	9.02002	2.465	9.5833
2.47	8.77288	2.47	9.0243
2.475	8.20262	2.475	8.98947
2.48	8.15882	2.48	8.57895
2.485	8.75349	2.485	7.64305
2.49	7.95278	2.49	8.18734
2.495	8.21609	2.495	7.73122
2.5	8.17421	2.5	7.628
2.505	7.51936	2.505	8.17353
2.51	8.27902	2.51	7.33138
2.515	8.22754	2.515	7.32051
2.52	7.17855	2.52	8.32224
2.525	8.02447	2.525	7.44038
2.53	7.65073	2.53	7.78666
2.535	7.75435	2.535	7.66197
2.54	7.83411	2.54	7.5659
2.545	7.2705	2.545	8.11679
2.55	8.09859	2.55	7.27865
2.555	7.47297	2.555	7.89626
2.56	7.62907	2.56	7.73365
2.565	8.37368	2.565	6.98366
2.57	8.31092	2.57	7.04189
2.575	7.87896	2.575	7.46996
2.58	7.93892	2.58	7.4066
2.585	7.36046	2.585	7.982
2.59	8.17743	2.59	7.16225
2.595	7.78199	2.595	7.5551
2.6	7.86934	2.6	7.46532
2.605	7.93692	2.605	7.39542
2.61	7.98966	2.61	7.34045
2.615	8.03129	2.615	7.29666
2.62	8.06457	2.62	7.26125
2.625	7.46611	2.625	7.85762
2.63	7.01713	2.63	8.30455
2.635	7.30573	2.635	8.01391
2.64	9.18965	2.64	9.45877
2.645	8.95378	2.645	8.88897
2.65	8.77896	2.65	8.45908
2.655	8.02446	2.655	8.7596
2.66	8.70942	2.66	7.73369
2.665	7.97648	2.665	8.21047
2.67	8.05214	2.67	7.94223
2.675	7.72403	2.675	8.12545
2.68	7.23643	2.68	8.50393
2.685	7.49609	2.685	8.16197
2.69	7.69293	2.69	7.90296
2.695	7.84265	2.695	7.70614
2.7	7.33156	2.7	8.18146
2.705	7.57361	2.705	7.91212
2.71	7.75724	2.71	7.70757
2.715	7.27158	2.715	8.17708
2.72	7.53271	2.72	7.90339
2.725	7.73065	2.725	7.69557
2.73	7.88121	2.73	7.53714
2.735	7.37075	2.735	8.04125
2.74	8.00022	2.74	7.40656
2.745	7.70561	2.745	7.69679
2.75	7.63009	2.75	7.76857
2.755	7.81696	2.755	7.57845
2.76	7.57227	2.76	7.82024
2.765	7.77272	2.765	7.61716
2.77	7.29968	2.77	8.08777
2.775	7.57028	2.775	7.81489
2.78	7.77533	2.78	7.60767
2.785	8.31818	2.785	7.06275
2.79	7.72008	2.79	7.65884
2.795	7.50993	2.795	7.86701
2.8	8.12324	2.8	7.25177
2.805	8.20347	2.805	7.16964
2.81	7.64028	2.81	7.73095
2.815	7.84326	2.815	7.5261
2.82	7.99761	2.82	7.36989
2.825	7.49001	2.825	7.87564
2.83	7.73469	2.83	7.62912
2.835	7.29483	2.835	8.06714
2.84	7.59033	2.84	7.76981
2.845	9.47946	2.845	9.20964
2.85	8.62207	2.85	9.26154
2.855	8.99138	2.855	8.2877
2.86	8.88864	2.86	7.93663
2.865	8.18823	2.865	8.29626
2.87	7.66286	2.87	8.56563
2.875	7.89424	2.875	8.14183
2.88	8.06991	2.88	7.82143
2.885	7.57832	2.885	8.20405
2.89	8.22199	2.89	7.47824
2.895	8.32501	2.895	7.31319
2.9	8.40442	2.9	7.18685
2.905	7.84064	2.905	7.71501
2.91	8.04322	2.91	7.4853
2.915	8.19729	2.915	7.31046
2.92	7.68951	2.92	7.80225
2.925	7.93409	2.925	7.54526
2.93	7.49419	2.93	7.97543
2.935	7.78968	2.935	7.67223
2.94	7.38797	2.94	8.06774
2.945	7.7121	2.945	7.73854
2.95	7.71881	2.95	7.72761
2.955	7.96739	2.955	7.47544
2.96	7.5305	2.96	7.90923
2.965	7.82825	2.965	7.60874
2.97	9.48057	2.97	9.28473
2.975	9.3125	2.975	8.64688
2.98	9.18861	2.98	8.16594
2.985	8.47238	2.985	8.42817
2.99	8.56065	2.99	7.99902
2.995	8.00355	2.995	8.30009
3	7.58568	3	8.52555
3.005	8.28467	3.005	7.68188
3.01	8.42921	3.01	7.42844
3.015	7.91432	3.015	7.86129
3.02	8.15359	3.02	7.5601
3.025	7.70973	3.025	7.95714
3.03	8.00229	3.03	7.62909
3.035	7.5984	3.035	8.00598
3.04	7.68239	3.04	7.90136
3.045	7.98897	3.045	7.57893
3.05	8.22108	3.05	7.33456
3.055	7.77186	3.055	7.7742
3.06	8.44733	3.06	7.09116
3.065	8.57425	3.065	6.95819
3.07	8.04614	3.07	7.48138
3.075	7.65003	3.075	7.87343
3.08	7.97839	3.08	7.54164
3.085	7.98831	3.085	7.52877
3.09	7.85239	3.09	7.66209
3.095	8.13449	3.095	7.37767
3.1	8.10972	3.1	7.40032
3.105	8.33472	3.105	7.17334
3.11	7.88018	3.11	7.62603
3.115	7.53925	3.115	7.96519
3.12	7.28352	3.12	8.21921
3.125	7.71718	3.125	7.78389
3.13	7.80607	3.13	7.69337
3.135	8.11633	3.135	7.38151
3.14	7.72573	3.14	7.77054
3.145	7.43275	3.145	8.06195
3.15	7.83848	3.15	7.65467
3.155	7.51948	3.155	7.97213
3.16	7.66715	3.16	7.82293
3.165	7.63455	3.165	7.854
3.17	7.75561	3.17	7.7314
3.175	8.09	3.175	7.39549
3.18	9.3829	3.18	9.43186
3.185	8.70168	3.185	9.30791
3.19	8.19076	3.19	9.21461
3.195	8.43305	3.195	8.51881
3.2	8.37844	3.2	8.23295
3.205	8.5811	3.205	7.7746
3.21	8.10981	3.21	8.05377
3.215	8.38183	3.215	7.63732
3.22	7.96258	3.22	7.94792
3.225	8.27362	3.225	7.55505
3.23	8.27057	3.23	7.49638
3.235	7.88642	3.235	7.8339
3.24	7.83685	3.24	7.84816
3.245	7.94521	3.245	7.71297
3.25	7.64461	3.25	7.9931
3.255	8.04465	3.255	7.57738
3.26	7.72141	3.26	7.88852
3.265	7.47899	3.265	8.12152
3.27	7.29717	3.27	8.29593
3.275	7.78629	3.275	7.80092
3.28	7.52986	3.28	8.05258
3.285	7.7245	3.285	7.85404
3.29	8.11409	3.29	7.46117
3.295	7.78302	3.295	7.78944
3.3	8.54714	3.3	7.02288
3.305	8.11511	3.305	7.45274
3.31	7.79109	3.31	7.77479
3.315	7.54808	3.315	8.01598
3.32	7.99131	3.32	7.57105
3.325	7.70047	3.325	7.86027
3.33	7.48234	3.33	8.07684
3.335	7.31876	3.335	8.23892
3.34	7.82156	3.34	7.73465
3.345	7.57539	3.345	7.97937
3.35	7.39078	3.35	8.16257
3.355	7.25232	3.355	8.29961
3.36	8.16092	3.36	7.38962
3.365	7.83724	3.365	7.71191
3.37	7.59448	3.37	7.95328
3.375	7.79937	3.375	7.74701
3.38	7.57119	3.38	7.97382
3.385	8.02554	3.385	7.5181
3.39	7.74304	3.39	7.79923
3.395	7.53117	3.395	8.00973
3.4	7.37228	3.4	8.16725
3.405	7.25313	3.405	8.28504
3.41	8.1762	3.41	7.36061
3.415	7.86337	3.415	7.67206
3.42	7.62877	3.42	7.90531
3.425	7.45282	3.425	8.07989
3.43	7.94636	3.43	7.58499
3.435	7.69325	3.435	7.83673
3.44	7.89037	3.44	7.63824
3.445	7.65636	3.445	7.87089
3.45	7.48087	3.45	8.04502
3.455	7.97474	3.455	7.54978
3.46	7.72189	3.46	7.80128
3.465	7.9192	3.465	7.60259
3.47	7.68534	3.47	7.83509
3.475	7.50996	3.475	8.00912
3.48	8.00391	3.48	7.5138
3.485	8.13807	3.485	7.37828
3.49	7.85683	3.49	7.65815
3.495	7.64592	3.495	7.8677
3.5	10.1656	3.5	8.67748
3.505	9.39931	3.505	8.63872
3.51	8.82466	3.51	8.60931
3.515	8.3937	3.515	8.58692
3.52	8.45746	3.52	8.18284
3.525	8.12345	3.525	8.26131
3.53	8.49846	3.53	7.69435
3.535	8.54342	3.535	7.50511
3.54	8.19531	3.54	7.74471
3.545	8.32121	3.545	7.53713
3.55	8.03381	3.55	7.76297
3.555	8.44377	3.555	7.30653
3.56	8.12801	3.56	7.58714
3.565	7.89122	3.565	7.79725
3.57	8.10061	3.57	7.56756
3.575	7.87583	3.575	7.77681
3.58	8.33276	3.58	7.30793
3.585	8.05222	3.585	7.5792
3.59	8.2288	3.59	7.39537
3.595	7.9794	3.595	7.63902
3.6	7.79239	3.6	7.82142
3.605	7.65218	3.605	7.95788
3.61	7.93399	3.61	7.67294
3.615	7.76353	3.615	7.84076
3.62	7.63572	3.62	7.96629
3.625	7.5399	3.625	8.06009
3.63	8.09355	3.63	7.50462
3.635	7.88556	3.635	7.71095
3.64	8.11654	3.64	7.47842
3.645	7.90796	3.645	7.68554
3.65	7.75156	3.65	7.84054
3.655	8.02124	3.655	7.5695
3.66	7.84167	3.66	7.74775
3.665	7.70704	3.665	7.88109
3.67	8.23158	3.67	7.35528
3.675	8.00175	3.675	7.58385
3.68	8.21637	3.68	7.36799
3.685	7.9955	3.685	7.58762
3.69	8.21684	3.69	7.36505
3.695	8.00102	3.695	7.57965
3.7	8.22613	3.7	7.35331
3.705	8.01315	3.705	7.56508
3.71	8.47893	3.71	7.09809
3.715	8.20503	3.715	7.37077
3.72	7.99964	3.72	7.57494
3.725	8.23259	3.725	7.34078
3.73	8.02548	3.73	7.54668
3.735	7.87018	3.735	7.70077
3.74	7.75375	3.74	7.81599
3.745	7.66647	3.745	7.90206
3.75	7.98799	3.75	7.57933
3.755	7.84731	3.755	7.7188
3.76	7.74184	3.76	7.82306
3.765	7.66277	3.765	7.90092
3.77	8.22899	3.77	7.33348
3.775	8.41738	3.775	7.14389
3.78	8.17684	3.78	7.38322
3.785	7.99647	3.785	7.56237
3.79	8.24819	3.79	7.30944
3.795	8.05515	3.795	7.50127
3.8	7.91042	3.8	7.6448
3.805	7.8019	3.805	7.7521
3.81	7.72056	3.81	7.83223
3.815	7.65959	3.815	7.89199
3.82	8.00086	3.82	7.54952
3.825	7.87498	3.825	7.67419
3.83	7.78061	3.83	7.76734
3.835	7.70988	3.835	7.83687
3.84	7.65687	3.84	7.88867
3.845	7.61715	3.845	7.92717
3.85	7.5874	3.85	7.95571
3.855	7.95208	3.855	7.58982
3.86	7.84377	3.86	7.69693
3.865	8.38805	3.865	7.15143
3.87	8.17303	3.87	7.36524
3.875	7.38633	3.875	8.15073
3.88	8.0451	3.88	7.49075
3.885	7.91594	3.885	7.6187
3.89	8.20607	3.89	7.32737
3.895	8.04183	3.895	7.49039
3.9	7.9187	3.9	7.61231
3.905	8.21334	3.905	7.31646
3.91	8.0525	3.91	7.47609
3.915	7.93191	3.915	7.59547
3.92	7.84151	3.92	7.68467
3.925	7.77375	3.925	7.75121
3.93	7.72297	3.93	7.80078
3.935	7.68493	3.935	7.83761
3.94	7.65644	3.94	7.86489
3.945	7.63511	3.945	7.88501
3.95	8.00611	3.95	7.5128
3.955	7.90253	3.955	7.61517
3.96	7.82489	3.96	7.6916
3.965	7.7667	3.965	7.74858
3.97	7.7231	3.97	7.79097
3.975	7.69044	3.975	7.82242
3.98	8.05294	3.98	7.45871
3.985	7.94299	3.985	7.56745
3.99	7.86056	3.99	7.64867
3.995	7.79879	3.995	7.70923
4	8.13945	4	7.36736
4.005	8.01312	4.005	7.49248
4.01	7.91841	4.01	7.58598
4.015	7.84742	4.015	7.65576
4.02	7.79422	4.02	7.70775
4.025	8.14131	4.025	7.35945
4.03	8.01981	4.03	7.47974
4.035	7.92872	4.035	7.56962
4.04	7.86044	4.04	7.63668
4.045	7.80928	4.045	7.68664
4.05	7.77095	4.05	7.72376
4.055	7.74224	4.055	7.75125
4.06	7.72075	4.06	7.77153
4.065	8.09163	4.065	7.39945
4.07	7.98796	4.07	7.50191
4.075	7.91025	4.075	7.57841
4.08	8.23895	4.08	7.24849
4.085	8.10366	4.085	7.38258
4.09	8.00223	4.09	7.48279
4.095	7.9262	4.095	7.55761
4.1	7.86922	4.1	7.61338
4.105	7.82653	4.105	7.65487
4.11	7.79455	4.11	7.68564
4.115	8.15756	4.115	7.32142
4.12	7.66104	4.12	7.81673
4.125	7.67056	4.125	7.806
4.13	8.06469	4.13	7.41066
4.135	7.97846	4.135	7.49567
4.14	7.91383	4.14	7.55909
4.145	7.8654	4.145	7.60631
4.15	8.21607	4.15	7.25444
4.155	8.09724	4.155	7.37205
4.16	7.38269	4.16	8.0854
4.165	8.09557	4.165	7.37131
4.17	7.38151	4.17	8.08415
4.175	7.85623	4.175	7.60822
4.18	8.45593	4.18	7.00732
4.185	7.65699	4.185	7.80505
4.19	7.6811	4.19	7.77973
4.195	7.69922	4.195	7.76039
4.2	8.0998	4.2	7.3586
4.205	8.01841	4.205	7.43878
4.21	7.95741	4.21	7.49858
4.215	7.9117	4.215	7.54308
4.22	7.87746	4.22	7.57611
4.225	7.85182	4.225	7.60054
4.23	7.83263	4.23	7.61852
4.235	7.81828	4.235	7.63166
4.24	8.1945	4.24	7.25422
4.245	8.09484	4.245	7.35267
4.25	8.02014	4.25	7.42616
4.255	7.96416	4.255	7.48093
4.26	8.30916	4.26	7.13473
4.265	8.18608	4.265	7.25659
4.27	8.09381	4.27	7.34765
4.275	8.02466	4.275	7.41559
4.28	7.97283	4.28	7.46621
4.285	7.934	4.285	7.50383
4.29	7.27944	4.29	8.15718
4.295	7.41183	4.295	8.02358
4.3	9.17656	4.3	9.58844
4.305	9.23622	4.305	8.72391
4.31	8.89916	4.31	8.45706
4.315	8.64642	4.315	8.2566
4.32	8.84387	4.32	7.71899
4.325	8.61016	4.325	7.69732
4.33	8.43493	4.33	7.68074
4.335	8.30357	4.335	7.66799
4.34	8.2051	4.34	7.6581
4.345	8.13132	4.345	7.65036
4.35	8.07604	4.35	7.64423
4.355	8.03463	4.355	7.63931
4.36	8.00364	4.36	7.6353
4.365	8.3674	4.365	7.24502
4.37	7.63294	4.37	7.95933
4.375	7.70542	4.375	7.87147
4.38	7.75984	4.38	7.80525
4.385	7.80071	4.385	7.75526
4.39	7.83142	4.39	7.71745
4.395	7.85452	4.395	7.68877
4.4	7.87189	4.4	7.66694
4.405	8.27193	4.405	7.2633
4.41	8.19015	4.41	7.34211
4.415	8.12888	4.415	7.40089
4.42	8.08298	4.42	7.44466
4.425	8.04861	4.425	7.47716
4.43	8.0229	4.43	7.50121
4.435	8.00367	4.435	7.51893
4.44	7.9893	4.44	7.5319
4.445	8.36554	4.445	7.15436
4.45	8.2659	4.45	7.25274
4.455	7.56575	4.455	7.95169
4.46	7.66397	4.46	7.8523
4.465	7.7377	4.465	7.77744
4.47	7.79304	4.47	7.72098
4.475	7.83461	4.475	7.67831
4.48	7.86585	4.48	7.64598
4.485	7.88933	4.485	7.62142
4.49	7.907	4.49	7.60267
4.495	8.30725	4.495	7.20135
4.5	8.22564	4.5	7.2819
4.505	8.16448	4.505	7.34199
4.51	7.49319	4.51	8.01221
4.515	7.61305	4.515	7.89129
4.52	8.08995	4.52	7.41333
4.525	8.06582	4.525	7.43641
4.53	8.04777	4.53	7.45339
4.535	8.0343	4.535	7.46581
4.54	8.02424	4.54	7.47481
4.545	8.01676	4.545	7.48123
4.55	8.01121	4.55	7.48573
4.555	8.0071	4.555	7.48878
4.56	8.00407	4.56	7.49075
4.565	8.00186	4.565	7.49191
4.57	8.00025	4.57	7.49246
4.575	7.9991	4.575	7.49255
4.58	7.9983	4.58	7.49229
4.585	7.37227	4.585	8.11726
4.59	7.91303	4.59	7.57545
4.595	7.93678	4.595	7.55064
4.6	7.95465	4.6	7.53171
4.605	7.96811	4.605	7.5172
4.61	7.97826	4.61	7.50599
4.615	7.98593	4.615	7.49726
4.62	7.99174	4.62	7.4904
4.625	7.99615	4.625	7.48494
4.63	7.37403	4.63	8.106
4.635	7.53077	4.635	7.9482
4.64	7.64838	4.64	7.82954
4.645	7.73664	4.645	7.74022
4.65	7.80289	4.65	7.67291
4.655	7.85263	4.655	7.62211
4.66	8.27693	4.66	7.19675
4.665	7.82641	4.665	7.64622
4.67	7.87043	4.67	7.60114
4.675	8.29045	4.675	7.18006
4.68	8.22365	4.68	7.2458
4.685	8.17361	4.685	7.29479
4.69	8.13613	4.69	7.33121
4.695	7.4826	4.695	7.98369
4.7	7.61577	4.7	7.84946
4.705	7.71571	4.705	7.74847
4.71	7.79071	4.71	7.67241
4.715	7.84702	4.715	7.61504
4.72	7.8893	4.72	7.5717
4.725	8.30801	4.725	7.15193
4.73	8.24024	4.73	7.21865
4.735	8.18946	4.735	7.26838
4.74	8.15143	4.74	7.30535
4.745	7.49747	4.745	7.95825
4.75	8.25582	4.75	7.19885
4.755	7.57587	4.755	7.87773
4.76	7.68924	4.76	7.76331
4.765	7.77432	4.765	7.67717
4.77	7.83818	4.77	7.61226
4.775	7.88613	4.775	7.56325
4.78	7.92214	4.78	7.52618
4.785	7.94921	4.785	7.49806
4.79	7.96955	4.79	7.47666
4.795	7.98487	4.795	7.46028
4.8	7.37093	4.8	8.07317
4.805	7.53379	4.805	7.90925
4.81	9.32139	4.81	9.45138
4.815	9.39822	4.815	8.56985
4.82	9.07404	4.82	8.29027
4.825	8.83098	4.825	8.08029
4.83	8.64875	4.83	7.92251
4.835	8.51215	4.835	7.80387
4.84	8.40977	4.84	7.7146
4.845	8.33306	4.845	7.64735
4.85	7.65011	4.85	8.2221
4.855	7.76125	4.855	8.02959
4.86	7.84467	4.86	7.88491
4.865	7.9073	4.865	7.77611
4.87	7.95435	4.87	7.69421
4.875	7.9897	4.875	7.63249
4.88	8.01629	4.88	7.58591
4.885	8.0363	4.885	7.55067
4.89	8.05137	4.89	7.52395
4.895	8.06275	4.895	7.50362
4.9	8.07135	4.9	7.48807
4.905	8.07787	4.905	7.47611
4.91	7.45735	4.91	8.09233
4.915	7.6153	4.915	7.93093
4.92	7.73384	4.92	7.80958
4.925	8.20975	4.925	7.33133
4.93	8.18489	4.93	7.35421
4.935	7.77937	4.935	7.75802
4.94	8.2441	4.94	7.29178
4.945	8.21086	4.945	7.32366
4.95	8.186	4.95	7.34728
4.955	7.78047	4.955	7.75165
4.96	7.61973	4.96	7.9113
4.965	8.36613	4.965	7.16385
4.97	7.67724	4.97	7.85173
4.975	7.78391	4.975	7.74407
4.98	7.86399	4.98	7.66303
4.985	7.92411	4.985	7.60196
4.99	7.96927	4.99	7.55586
4.995	8.00321	4.995	7.52099
5	21.178	5	20.6439
5.005	21.2147	5.005	20.6412
5.01	21.2466	5.01	20.6433
5.015	21.0365	5.015	20.8874
5.02	21.1247	5.02	20.8332
5.025	21.1953	5.025	20.7966
5.03	21.2527	5.03	20.7732
5.035	21.3001	5.035	20.7597
5.04	21.3402	5.04	20.7537
5.045	21.3746	5.045	20.7533
5.05	21.4049	5.05	20.757
5.055	21.432	5.055	20.7639
5.06	21.4568	5.06	20.7731
5.065	21.4798	5.065	20.7841
5.07	21.5015	5.07	20.7964
5.075	21.5222	5.075	20.8097
5.08	21.5421	5.08	20.8238
5.085	19.8961	5.085	19.173
5.09	20.3169	5.09	19.5898
5.095	20.637	5.095	19.9065
5.1	20.8814	5.1	20.1481
5.105	21.0691	5.105	20.3333
5.11	21.2143	5.11	20.4763
5.115	19.6622	5.115	18.9222
5.12	20.1534	5.12	19.4115
5.125	20.5263	5.125	19.7825
5.13	20.8103	5.13	20.0649
5.135	21.0276	5.135	20.2806
5.14	19.9166	5.14	18.3941
5.145	19.9698	5.145	19.403
5.15	20.396	5.15	19.7818
5.155	21.1069	5.155	19.6829
5.16	19.5972	5.16	18.3293
5.165	20.1201	5.165	18.9689
5.17	20.5167	5.17	19.4527
5.175	19.1531	5.175	18.1541
5.18	19.7856	5.18	18.835
5.185	19.2244	5.185	17.0588
5.19	18.5845	5.19	19.2557
5.195	20.6064	5.195	18.4098
5.2	20.2551	5.2	19.6514
5.205	18.9538	5.205	18.2979
5.21	18.3546	5.21	16.8852
5.215	19.417	5.215	17.6239
5.22	16.6459	5.22	15.0924
5.225	17.0096	5.225	17.3634
5.23	17.7368	5.23	15.2896
5.235	16.4	5.235	15.5956
5.24	16.3972	5.24	14.8042
5.245	16.2415	5.245	14.3433
5.25	16.8854	5.25	13.2159
5.255	16.9157	5.255	16.1327
5.26	17.4858	5.26	14.4501
5.265	13.2275	5.265	11.1912
5.27	13.3281	5.27	12.0351
5.275	12.5945	5.275	10.125
5.28	13.0615	5.28	10.9557
5.285	15.0666	5.285	13.2332
5.29	13.6306	5.29	11.2273
5.295	13.812	5.295	11.7447
5.3	14.3245	5.3	11.7348
5.305	11.3725	5.305	8.38061
5.31	12.0678	5.31	9.5376
5.315	9.63481	5.315	6.67657
5.32	9.05383	5.32	6.53797
5.325	6.92743	5.325	4.74299
5.33	8.6236	5.33	6.68736
5.335	6.5541	5.335	4.80364
5.34	6.62746	5.34	5.01599
5.345	8.32244	5.345	6.81484
5.35	8.30427	5.35	6.10032
5.355	7.88328	5.355	5.92044
5.36	9.2074	5.36	7.42503
5.365	8.91098	5.365	6.48971
5.37	9.94661	5.37	7.80954
5.375	9.04683	5.375	7.12254
5.38	8.73329	5.38	6.19433
5.385	9.75598	5.385	7.51938
5.39	10.5118	5.39	8.50161
5.395	7.73663	5.395	5.8959
5.4	8.94577	5.4	7.23177
5.405	8.17592	5.405	6.55661
5.41	9.2381	5.41	7.68943
5.415	9.63642	5.415	8.91427
5.42	10.3057	5.42	9.4393
5.425	6.83991	5.425	7.11601
5.43	8.1542	5.43	8.04023
5.435	9.12845	5.435	8.72157
5.44	6.51685	5.44	5.88993
5.445	7.84839	5.445	7.05607
5.45	8.83547	5.45	7.91875
5.455	6.2334	5.455	5.22302
5.46	7.95893	5.46	6.10406
5.465	2.85093	5.465	3.15091
5.47	4.96601	5.47	4.87149
5.475	4.87516	5.475	4.48441
5.48	1.06297	5.48	1.22359
5.485	3.5265	5.485	3.33656
5.49	4.97531	5.49	5.29597
5.495	3.48801	5.495	2.65366
5.5	4.89355	5.5	4.73019
5.505	6.31757	5.505	5.89337
5.51	5.46964	5.51	5.32653
5.515	5.04855	5.515	4.63307
5.52	6.37154	5.52	5.75144
5.525	2.35548	5.525	1.58155
5.53	3.65844	5.53	4.01976
5.535	5.24674	5.535	5.21258
5.54	4.76034	5.54	4.42922
5.545	5.64722	5.545	5.86693
5.55	6.68197	5.55	6.55071
5.555	5.78033	5.555	5.38549
5.56	6.74266	5.56	6.14978
5.565	7.45204	5.565	6.71028
5.57	5.68083	5.57	6.07801
5.575	6.61416	5.575	6.61866
5.58	7.30173	5.58	7.01136
5.585	6.13955	5.585	5.62768
5.59	6.90632	5.59	6.22797
5.595	5.56495	5.595	5.23846
5.6	4.77328	5.6	4.22751
5.605	5.81783	5.605	5.10726
5.61	6.58863	5.61	5.75411
5.615	5.4887	5.615	4.56087
5.62	6.30198	5.62	5.30381
5.625	6.51231	5.625	6.23493
5.63	5.13529	5.63	5.11149
5.635	5.98207	5.635	5.6653
5.64	6.6044	5.64	6.06755
5.645	5.77991	5.645	4.30376
5.65	5.79227	5.65	5.62598
5.655	4.74658	5.655	4.3158
5.66	5.98726	5.66	4.58388
5.665	4.85762	5.665	3.48816
5.67	5.64834	5.67	4.30399
5.675	6.22842	5.675	4.90255
5.68	6.02503	5.68	5.96363
5.685	6.48276	5.685	6.12283
5.69	7.19999	5.69	5.84192
5.695	3.62528	5.695	3.05588
5.7	5.00175	5.7	3.48589
5.705	3.73519	5.705	2.74995
5.71	4.66442	5.71	3.59398
5.715	7.40052	5.715	5.49194
5.72	5.74127	5.72	3.96748
5.725	5.89599	5.725	4.70001
5.73	6.2402	5.73	4.99443
5.735	4.81972	5.735	3.53626
5.74	7.05736	5.74	5.7453
5.745	7.45836	5.745	5.35061
5.75	7.36394	5.75	5.42282
5.755	8.9452	5.755	7.12871
5.76	7.84144	5.76	7.36905
5.765	6.34511	5.765	4.86
5.77	8.1439	5.77	6.66265
5.775	8.21566	5.775	5.96308
5.78	7.87421	5.78	5.80653
5.785	7.99166	5.785	5.28841
5.79	8.72435	5.79	7.55878
5.795	8.61976	5.795	6.58667
5.8	8.14598	5.8	6.22566
5.805	9.44257	5.805	7.60648
5.81	8.75064	5.81	6.97739
5.815	9.88359	5.815	8.15713
5.82	9.06892	5.82	7.37721
5.825	10.4967	5.825	8.05687
5.83	9.52132	5.83	7.28373
5.835	10.4416	5.835	8.3554
5.84	9.22888	5.84	7.73292
5.845	8.54718	5.845	7.01076
5.85	9.68772	5.85	8.12063
5.855	9.26561	5.855	6.90128
5.86	10.219	5.86	8.0201
5.865	10.9349	5.865	8.85979
5.87	10.1943	5.87	7.43778
5.875	9.24335	5.875	6.7392
5.88	10.1819	5.88	7.86669
5.885	10.8867	5.885	8.71284
5.89	9.75078	5.89	7.6826
5.895	10.5506	5.895	8.56132
5.9	9.48588	5.9	7.55548
5.905	10.3391	5.905	8.4525
5.91	10.9798	5.91	9.12576
5.915	9.7958	5.915	7.9658
5.92	10.5595	5.92	8.7472
5.925	11.1331	5.925	9.33374
5.93	10.2856	5.93	7.72177
5.935	10.9199	5.935	8.54601
5.94	9.34399	5.94	7.8862
5.945	10.1956	5.945	8.66081
5.95	10.8351	5.95	9.24221
5.955	9.65011	5.955	8.0133
5.96	10.413	5.96	8.74293
5.965	10.9859	5.965	9.29058
5.97	9.36404	5.97	8.42328
5.975	10.1811	5.975	9.04224
5.98	10.7947	5.98	9.50686
5.985	9.20321	5.985	8.57728
5.99	10.0431	5.99	9.1495
5.995	11.2992	5.995	8.95357
6	9.95334	6	7.76488
6.005	10.5955	6.005	8.52462
6.01	11.0779	6.01	9.09478
6.015	9.38799	6.015	8.24432
6.02	9.76706	6.02	9.26279
6.025	10.4339	6.025	9.64512
6.03	10.9347	6.03	9.93221
6.035	10.9241	6.035	10.5348
6.04	9.63324	6.04	8.93985
6.045	9.92971	6.045	9.78179
6.05	10.5346	6.05	10.0317
6.055	9.17511	6.055	8.70248
6.06	9.56054	6.06	9.60325
6.065	8.17978	6.065	8.61881
6.07	9.17758	6.07	9.1498
6.075	9.92656	6.075	9.54832
6.08	8.04963	6.08	8.95599
6.085	9.05716	6.085	9.39918
6.09	9.42646	6.09	10.1188
6.095	10.0859	6.095	10.2769
6.1	10.1942	6.1	10.7827
6.105	9.23094	6.105	8.87647
6.11	9.9186	6.11	9.33938
6.115	10.048	6.115	10.0737
6.12	10.5275	6.12	10.2429
6.125	10.1138	6.125	11.1439
6.13	8.90244	6.13	9.39078
6.135	9.25844	6.135	10.114
6.14	9.52093	6.14	10.6617
6.145	8.04788	6.145	9.41243
6.15	9.60188	6.15	9.11921
6.155	9.75771	6.155	9.90972
6.16	9.87005	6.16	10.5079
6.165	9.94977	6.165	10.9618
6.17	8.33963	6.17	9.64213
6.175	9.16532	6.175	9.92159
6.18	9.39816	6.18	10.5183
6.185	9.80678	6.185	10.7326
6.19	8.20188	6.19	9.47459
6.195	9.03148	6.195	9.80027
6.2	8.8803	6.2	10.8186
6.205	7.47881	6.205	9.54033
6.21	8.46094	6.21	9.8508
6.215	8.42414	6.215	10.8577
6.22	9.16076	6.22	10.8493
6.225	8.28685	6.225	8.93919
6.23	9.04138	6.23	9.39905
6.235	9.22081	6.235	10.131
6.24	9.73771	6.24	10.2983
6.245	7.68658	6.245	9.53231
6.25	8.5633	6.25	9.84512
6.255	9.2213	6.255	10.0798
6.26	9.32831	6.26	10.6429
6.265	9.79088	6.265	10.6835
6.27	9.75132	6.27	11.101
6.275	9.06405	6.275	8.74143
6.28	9.57666	6.28	9.24604
6.285	9.5746	6.285	10.0115
6.29	9.56841	6.29	10.5908
6.295	9.94607	6.295	10.6435
6.3	10.2298	6.3	10.6831
6.305	8.39061	6.305	9.43445
6.31	8.65748	6.31	10.154
6.315	9.86539	6.315	9.68639
6.32	10.1485	6.32	9.95902
6.325	8.30886	6.325	8.88511
6.33	8.9623	6.33	9.34875
6.335	9.45279	6.335	9.69653
6.34	9.82105	6.34	9.95742
6.345	9.7107	6.345	10.5401
6.35	10.0102	6.35	10.5953
6.355	10.2352	6.355	10.6367
6.36	8.73899	6.36	9.00241
6.365	9.26809	6.365	9.42763
6.37	9.66529	6.37	9.74657
6.375	9.57663	6.375	10.3728
6.38	9.89237	6.38	10.4606
6.385	10.755	6.385	9.90096
6.39	9.11376	6.39	8.43916
6.395	9.53405	6.395	8.99372
6.4	9.84962	6.4	9.40964
6.405	10.0867	6.405	9.7216
6.41	10.2648	6.41	9.95557
6.415	10.3988	6.415	10.1311
6.42	10.1127	6.42	10.6496
6.425	8.61493	6.425	8.99132
6.43	9.14285	6.43	9.39846
6.435	9.53913	6.435	9.70381
6.44	9.83668	6.44	9.93281
6.445	8.3948	6.445	8.43915
6.45	8.9646	6.45	8.96977
6.455	9.39227	6.455	9.36771
6.46	10.3388	6.46	9.04065
6.465	10.4258	6.465	9.4186
6.47	10.4913	6.47	9.70204
6.475	10.5408	6.475	9.91458
6.48	9.29982	6.48	8.02162
6.485	9.6384	6.485	8.6346
6.49	9.89263	6.49	9.09429
6.495	10.0836	6.495	9.43901
6.5	10.2272	6.5	9.6975
6.505	10.3351	6.505	9.89132
6.51	10.4164	6.51	10.0366
6.515	10.4776	6.515	10.1456
6.52	10.5239	6.52	10.2272
6.525	8.89349	6.525	8.62302
6.53	9.32187	6.53	9.07069
6.535	9.64344	6.535	9.40638
6.54	10.2718	6.54	9.27113
6.545	10.3616	6.545	9.55149
6.55	10.4291	6.55	9.76169
6.555	10.4801	6.555	9.91927
6.56	10.5186	6.56	10.0374
6.565	8.88241	6.565	8.46051
6.57	9.30639	6.57	8.92866
6.575	10.0116	6.575	8.89274
6.58	10.1589	6.58	9.24757
6.585	10.2696	6.585	9.51361
6.59	10.353	6.59	9.71306
6.595	10.4157	6.595	9.86255
6.6	10.4631	6.6	9.97458
6.605	10.4988	6.605	10.0585
6.61	10.5259	6.61	10.1214
6.615	10.5465	6.615	10.1685
6.62	8.89683	6.62	8.53826
6.625	9.69765	6.625	8.57946
6.63	9.91664	6.63	8.99212
6.635	10.0811	6.635	9.30151
6.64	10.2048	6.64	9.53344
6.645	10.2977	6.645	9.70728
6.65	10.3677	6.65	9.83756
6.655	10.4204	6.655	9.93516
6.66	10.4602	6.66	10.0083
6.665	11.1158	6.665	9.43749
6.67	11.3714	6.67	9.24563
6.675	10.7945	6.675	9.87044
6.68	11.1309	6.68	9.57013
6.685	9.3362	6.685	8.06126
6.69	9.6413	6.69	8.58038
6.695	9.87035	6.695	8.96958
6.7	10.0424	6.7	9.26136
6.705	10.1716	6.705	9.48007
6.71	10.2688	6.71	9.64397
6.715	10.3419	6.715	9.76678
6.72	10.3969	6.72	9.85875
6.725	9.81295	6.725	10.5531
6.73	9.99848	6.73	10.4504
6.735	10.7633	6.735	9.74785
6.74	10.7139	6.74	9.84405
6.745	10.6771	6.745	9.91607
6.75	10.6497	6.75	9.96996
6.755	8.33853	6.755	8.97034
6.76	8.87951	6.76	9.2481
6.765	9.28546	6.765	9.45627
6.77	9.59013	6.77	9.61226
6.775	9.81884	6.775	9.7291
6.78	9.99058	6.78	9.81659
6.785	9.73265	6.785	10.269
6.79	9.92127	6.79	10.2263
6.795	10.4499	6.795	9.8072
6.8	10.0778	6.8	10.2615
6.805	10.1807	6.805	10.2203
6.81	10.2582	6.81	10.1892
6.815	10.3165	6.815	10.1657
6.82	10.3604	6.82	10.148
6.825	10.3935	6.825	10.1345
6.83	10.4186	6.83	10.1243
6.835	10.4376	6.835	10.1165
6.84	10.4521	6.84	10.1105
6.845	10.4632	6.845	10.1058
6.85	10.4717	6.85	10.1022
6.855	10.4782	6.855	10.0993
6.86	10.4834	6.86	10.097
6.865	10.4875	6.865	10.0951
6.87	10.4907	6.87	10.0936
6.875	10.4934	6.875	10.0923
6.88	10.4956	6.88	10.0912
6.885	10.1105	6.885	10.4771
6.89	8.9253	6.89	8.33223
6.895	8.91868	6.895	9.14311
6.9	9.29576	6.9	9.36924
6.905	9.57877	6.905	9.53867
6.91	9.79121	6.91	9.66558
6.915	9.95073	6.915	9.7606
6.92	10.0706	6.92	9.8317
6.925	10.1606	6.925	9.88486
6.93	10.2284	6.93	9.92457
6.935	10.2794	6.935	9.95419
6.94	9.69231	6.94	10.6017
6.945	9.87549	6.945	10.4639
6.95	10.6385	6.95	9.73494
6.955	9.96226	6.955	10.4368
6.96	10.0785	6.96	10.3397
6.965	10.1659	6.965	10.2668
6.97	10.2316	6.97	10.2119
6.975	8.61571	6.975	8.5052
6.98	9.05483	6.98	8.87587
6.985	9.38435	6.985	9.1537
6.99	9.24471	6.99	9.74883
6.995	9.52201	6.995	9.81313
7	9.73016	7	9.86117
7.005	9.88644	7.005	9.89702
7.01	10.0038	7.01	9.92373
7.015	10.092	7.015	9.94358
7.02	10.1583	7.02	9.95828
7.025	10.2083	7.025	9.96912
7.03	10.2459	7.03	9.97708
7.035	10.2742	7.035	9.98286
7.04	9.6702	7.04	10.6125
7.045	9.84061	7.045	10.4613
7.05	9.96859	7.05	10.3477
7.055	10.0647	7.055	10.2623
7.06	10.137	7.06	10.1981
7.065	10.1914	7.065	10.1497
7.07	10.2324	7.07	10.1133
7.075	10.2633	7.075	10.0858
7.08	10.2866	7.08	10.0649
7.085	10.3043	7.085	10.0492
7.09	10.7046	7.09	9.65018
7.095	10.6232	7.095	9.73264
7.1	10.5623	7.1	9.7943
7.105	10.5168	7.105	9.84036
7.11	10.4828	7.11	9.87473
7.115	9.83205	7.115	10.5258
7.12	9.9674	7.12	10.3907
7.125	10.0691	7.125	10.2891
7.13	10.1455	7.13	10.2128
7.135	10.203	7.135	10.1553
7.14	10.2463	7.14	10.1121
7.145	10.2789	7.145	10.0795
7.15	10.3036	7.15	10.0548
7.155	10.7092	7.155	9.64921
7.16	10.6317	7.16	9.72669
7.165	10.5737	7.165	9.78461
7.17	10.5304	7.17	9.82788
7.175	8.83269	7.175	8.19475
7.18	8.58497	7.18	9.24608
7.185	9.0226	7.185	9.4111
7.19	9.35098	7.19	9.53467
7.195	9.5974	7.195	9.62715
7.2	10.1693	7.2	9.30936
7.205	9.82958	7.205	9.83964
7.21	10.3437	7.21	9.46833
7.215	10.3477	7.215	9.57152
7.22	10.3507	7.22	9.64871
7.225	10.3532	7.225	9.70641
7.23	10.3552	7.23	9.74948
7.235	9.73133	7.235	10.4071
7.24	9.88686	7.24	10.2768
7.245	10.0037	7.245	10.1789
7.25	10.0914	7.25	10.1053
7.255	10.5443	7.255	9.66289
7.26	10.5023	7.26	9.71278
7.265	10.4709	7.265	9.75
7.27	10.4475	7.27	9.77772
7.275	10.4301	7.275	9.79831
7.28	10.4172	7.28	9.81356
7.285	9.78218	7.285	10.4503
7.29	9.92934	7.29	10.3043
7.295	10.0399	7.295	10.1947
7.3	10.1229	7.3	10.1123
7.305	10.5723	7.305	9.66331
7.31	10.5276	7.31	9.70825
7.315	10.4942	7.315	9.74176
7.32	10.4693	7.32	9.7667
7.325	10.4508	7.325	9.7852
7.33	10.437	7.33	9.79889
7.335	10.4269	7.335	9.80895
7.34	9.79392	7.34	10.4418
7.345	10.3296	7.345	9.906
7.35	10.3496	7.35	9.88582
7.355	10.3647	7.355	9.8705
7.36	10.3762	7.36	9.85881
7.365	10.385	7.365	9.84984
7.37	10.3917	7.37	9.84293
7.375	10.3969	7.375	9.83754
7.38	10.401	7.38	9.83331
7.385	10.4041	7.385	9.82994
7.39	10.4067	7.39	9.82721
7.395	9.78323	7.395	10.4505
7.4	9.93906	7.4	10.2944
7.405	10.443	7.405	9.79025
7.41	10.4393	7.41	9.7938
7.415	10.4366	7.415	9.79626
7.42	10.4348	7.42	9.79791
7.425	10.4335	7.425	9.79896
7.43	10.4327	7.43	9.79955
7.435	10.4323	7.435	9.79979
7.44	10.4321	7.44	9.79978
7.445	9.80659	7.445	10.4251
7.45	10.3478	7.45	9.88361
7.455	10.3721	7.455	9.85919
7.46	10.3904	7.46	9.84068
7.465	10.4042	7.465	9.82661
7.47	10.4148	7.47	9.81586
7.475	10.4228	7.475	9.8076
7.48	10.429	7.48	9.80122
7.485	10.4338	7.485	9.79623
7.49	10.4375	7.49	9.7923
7.495	10.4404	7.495	9.78916
7.5	9.81731	7.5	10.4121
7.505	9.97338	7.505	10.2558
7.51	10.0906	7.51	10.1384
7.515	10.5655	7.515	9.66324
7.52	10.1531	7.52	10.0755
7.525	10.6127	7.525	9.61564
7.53	10.5757	7.53	9.65244
7.535	10.5481	7.535	9.67985
7.54	10.5276	7.54	9.70021
7.545	10.5123	7.545	9.71529
7.55	9.87547	7.55	10.3519
7.555	10.0213	7.555	10.2059
7.56	10.1308	7.56	10.0962
7.565	10.2131	7.565	10.0137
7.57	10.2749	7.57	9.95165
7.575	10.3214	7.575	9.90492
7.58	10.3564	7.58	9.86969
7.585	10.3829	7.585	9.84307
7.59	10.4028	7.59	9.82291
7.595	9.79243	7.595	10.4331
7.6	9.95806	7.6	10.2672
7.605	10.0824	7.605	10.1427
7.61	10.1758	7.61	10.0491
7.615	10.246	7.615	9.97866
7.62	10.2988	7.62	9.92567
7.625	10.3386	7.625	9.88573
7.63	10.3685	7.63	9.85559
7.635	10.3911	7.635	9.83279
7.64	10.4082	7.64	9.8155
7.645	9.79564	7.645	10.4278
7.65	9.95966	7.65	10.2636
7.655	10.0828	7.655	10.1403
7.66	10.1753	7.66	10.0475
7.665	10.2448	7.665	9.97782
7.67	10.2971	7.67	9.92534
7.675	9.71097	7.675	10.5113
7.68	9.89478	7.68	10.3273
7.685	10.0328	7.685	10.1891
7.69	10.1364	7.69	10.0852
7.695	10.2143	7.695	10.0072
7.7	10.2728	7.7	9.94842
7.705	10.7038	7.705	9.51723
7.71	10.6453	7.71	9.57551
7.715	10.6016	7.715	9.61903
7.72	9.94343	7.72	10.277
7.725	10.0732	7.725	10.147
7.73	10.1707	7.73	10.0493
7.735	10.244	7.735	9.9758
7.74	10.2991	7.74	9.92052
7.745	10.3405	7.745	9.87887
7.75	10.3717	7.75	9.84745
7.755	10.3953	7.755	9.82369
7.76	10.4131	7.76	9.80568
7.765	10.4266	7.765	9.79199
7.77	9.81134	7.77	10.407
7.775	9.97333	7.775	10.2448
7.78	10.095	7.78	10.123
7.785	10.1863	7.785	10.0314
7.79	10.255	7.79	9.96257
7.795	10.3066	7.795	9.91074
7.8	10.3454	7.8	9.87168
7.805	10.3747	7.805	9.8422
7.81	9.77134	7.81	10.4454
7.815	9.94221	7.815	10.2743
7.82	10.0705	7.82	10.1458
7.825	10.1668	7.825	10.0493
7.83	10.2392	7.83	9.97666
7.835	10.2937	7.835	9.92203
7.84	10.3346	7.84	9.88086
7.845	10.3655	7.845	9.8498
7.85	9.76328	7.85	10.4518
7.855	9.93503	7.855	10.2798
7.86	10.064	7.86	10.1507
7.865	10.1608	7.865	10.0536
7.87	10.2336	7.87	9.98067
7.875	10.2883	7.875	9.92576
7.88	10.3295	7.88	9.88439
7.885	10.7474	7.885	9.46622
7.89	10.2922	7.89	9.92123
7.895	9.70733	7.895	10.5059
7.9	9.89206	7.9	10.321
7.905	10.4177	7.905	9.79514
7.91	10.4302	7.91	9.78244
7.915	10.4397	7.915	9.77273
7.92	10.447	7.92	9.76527
7.925	9.82705	7.925	10.385
7.93	9.98553	7.93	10.2263
7.935	10.1045	7.935	10.1071
7.94	10.1939	7.94	10.0175
7.945	10.2611	7.945	9.95014
7.95	10.3116	7.95	9.89943
7.955	10.3496	7.955	9.86122
7.96	10.7652	7.96	9.44542
7.965	10.6951	7.965	9.51526
7.97	9.63029	7.97	10.5799
7.975	10.2239	7.975	9.98609
7.98	10.2873	7.98	9.92242
7.985	10.3351	7.985	9.87449
7.99	10.371	7.99	9.83836
7.995	10.3981	7.995	9.81108
8	10.4185	8	9.79043
8.005	10.434	8.005	9.77477
8.01	10.4457	8.01	9.76284
8.015	9.82915	8.015	10.3792
8.02	9.99013	8.02	10.218
8.025	10.111	8.025	10.0969
8.03	10.2018	8.03	10.0059
8.035	10.27	8.035	9.93751
8.04	10.3213	8.04	9.88602
8.045	10.7468	8.045	9.46026
8.05	10.0588	8.05	10.1481
8.055	10.1661	8.055	10.0406
8.06	10.2468	8.06	9.9597
8.065	10.3074	8.065	9.89888
8.07	10.353	8.07	9.85308
8.075	10.3873	8.075	9.81855
8.08	9.78772	8.08	10.418
8.085	9.96141	8.085	10.2441
8.09	10.0918	8.09	10.1135
8.095	10.1897	8.095	10.0153
8.1	10.2633	8.1	9.94155
8.105	10.7056	8.105	9.49909
8.11	10.6555	8.11	9.54893
8.115	10.6181	8.115	9.58613
8.12	10.5902	8.12	9.61385
8.125	9.94389	8.125	10.2599
8.13	10.0826	8.13	10.1211
8.135	10.1867	8.135	10.0167
8.14	10.2649	8.14	9.93829
8.145	10.3237	8.145	9.87929
8.15	9.74248	8.15	10.4603
8.155	9.92993	8.155	10.2727
8.16	10.0707	8.16	10.1317
8.165	10.1763	8.165	10.0259
8.17	10.2557	8.17	9.9463
8.175	10.7023	8.175	9.49949
8.18	10.2686	8.18	9.93301
8.185	8.03439	8.185	8.8362
8.19	8.63302	8.19	9.04102
8.195	9.46905	8.195	8.80748
8.2	9.71431	8.2	9.014
8.205	9.89836	8.205	9.1687
8.21	10.0365	8.21	9.28453
8.215	9.51474	8.215	9.99668
8.22	9.7468	8.22	9.90733
8.225	9.92094	8.225	9.84012
8.23	10.0517	8.23	9.78952
8.235	10.1498	8.235	9.75137
8.24	10.2235	8.24	9.72257
8.245	10.2789	8.245	9.70077
8.25	10.3205	8.25	9.68423
8.255	10.3519	8.255	9.67163
8.26	10.3755	8.26	9.66198
8.265	9.76783	8.265	10.28
8.27	9.93545	8.27	10.1201
8.275	10.0613	8.275	9.99996
8.28	10.1557	8.28	9.90966
8.285	10.2267	8.285	9.84175
8.29	10.28	8.29	9.79062
8.295	10.3201	8.295	9.75207
8.3	10.1118	8.3	9.96151
8.305	10.197	8.305	9.87698
8.31	10.261	8.31	9.81339
8.315	10.3092	8.315	9.76551
8.32	10.3454	8.32	9.72941
8.325	10.3726	8.325	9.70213
8.33	10.3932	8.33	9.68149
8.335	10.4087	8.335	9.66581
8.34	9.79494	8.34	10.2793
8.345	9.95801	8.345	10.116
8.35	10.0804	8.35	9.99334
8.355	10.1723	8.355	9.90114
8.36	11.9067	8.36	11.4972
8.365	11.5568	8.365	11.0432
8.37	11.2945	8.37	10.7025
8.375	11.0978	8.375	10.4468
8.38	10.9505	8.38	10.2548
8.385	10.2146	8.385	10.7362
8.39	10.2861	8.39	10.4738
8.395	10.7268	8.395	9.88982
8.4	10.2886	8.4	10.2205
8.405	10.3419	8.405	10.0865
8.41	10.769	8.41	9.59885
8.415	10.7076	8.415	9.61482
8.42	10.6616	8.42	9.62662
8.425	10.0018	8.425	10.2608
8.43	10.1303	8.43	10.113
8.435	10.2268	8.435	10.0019
8.44	10.2993	8.44	9.91847
8.445	10.3538	8.445	9.85571
8.45	10.3948	8.45	9.80847
8.455	10.4257	8.455	9.77287
8.46	10.449	8.46	9.746
8.465	9.84104	8.465	10.3512
8.47	10.0085	8.47	10.1816
8.475	10.1342	8.475	10.0542
8.48	10.2286	8.48	9.95855
8.485	10.2995	8.485	9.88662
8.49	10.3528	8.49	9.8325
8.495	10.3929	8.495	9.79174
8.5	10.4231	8.5	9.761
8.505	10.4459	8.505	9.73778
8.51	10.4631	8.51	9.72019
8.515	9.85063	8.515	10.3323
8.52	10.0147	8.52	10.168
8.525	10.1378	8.525	10.0445
8.53	10.2303	8.53	9.95178
8.535	10.2998	8.535	9.88206
8.54	10.352	8.54	9.82959
8.545	10.3913	8.545	9.79008
8.55	9.79539	8.55	10.3858
8.555	9.97185	8.555	10.2091
8.56	10.1043	8.56	10.0764
8.565	10.2038	8.565	9.97671
8.57	10.2785	8.57	9.90178
8.575	10.3347	8.575	9.84542
8.58	10.3769	8.58	9.80298
8.585	10.4087	8.585	9.77098
8.59	10.4326	8.59	9.74681
8.595	9.82524	8.595	10.354
8.6	9.60614	8.6	10.5729
8.605	9.82379	8.605	10.355
8.61	10.3741	8.61	9.80453
8.615	10.0181	8.615	10.1603
8.62	10.1331	8.62	10.0451
8.625	10.2195	8.625	9.95851
8.63	10.2844	8.63	9.89342
8.635	9.7077	8.635	10.4699
8.64	9.89856	8.64	10.2788
8.645	10.0418	8.645	10.1354
8.65	10.1494	8.65	10.0276
8.655	10.2302	8.655	9.94661
8.66	10.2909	8.66	9.8857
8.665	10.3365	8.665	9.83985
8.67	10.3709	8.67	9.8053
8.675	9.77127	8.675	10.4047
8.68	9.94495	8.68	10.2308
8.685	10.0753	8.685	10.1002
8.69	10.1732	8.69	10.0021
8.695	10.6337	8.695	9.54144
8.7	10.2104	8.7	9.96457
8.705	10.6618	8.705	9.51295
8.71	8.95321	8.71	7.89053
8.715	8.93582	8.715	8.71137
8.72	9.0662	8.72	9.18349
8.725	9.01854	8.725	9.68293
8.73	9.7517	8.73	9.28852
8.735	9.53285	8.735	9.76134
8.74	10.1376	8.74	9.34696
8.745	10.2094	8.745	9.41785
8.75	10.2634	8.75	9.47084
8.755	10.3039	8.755	9.5104
8.76	10.3344	8.76	9.53989
8.765	9.73193	8.765	10.1873
8.77	9.90342	8.77	10.0494
8.775	10.0321	8.775	9.9458
8.78	10.1288	8.78	9.86791
8.785	10.2013	8.785	9.80932
8.79	10.2558	8.79	9.76519
8.795	10.2968	8.795	9.73191
8.8	10.3276	8.8	9.70676
8.805	10.1123	8.805	9.92626
8.81	10.1923	8.81	9.84929
8.815	9.86547	8.815	10.1783
8.82	10.3892	8.82	9.65612
8.825	10.4003	8.825	9.64614
8.83	10.4087	8.83	9.63848
8.835	10.415	8.835	9.63255
8.84	10.4199	8.84	9.62792
8.845	10.4237	8.845	9.62427
8.85	10.4266	8.85	9.62135
8.855	9.80336	8.855	10.2445
8.86	9.95931	8.86	10.0883
8.865	10.0764	8.865	9.97107
8.87	10.1643	8.87	9.88293
8.875	10.2303	8.875	9.81665
8.88	10.6668	8.88	9.37981
8.885	10.6124	8.885	9.43387
8.89	10.5717	8.89	9.47423
8.895	9.91584	8.895	10.1298
8.9	10.0473	8.9	9.99803
8.905	10.1459	8.905	9.89902
8.91	10.22	8.91	9.82459
8.915	10.2757	8.915	9.76858
8.92	10.3175	8.92	9.7264
8.925	10.349	8.925	9.69458
8.93	10.3727	8.93	9.67054
8.935	10.3905	8.935	9.65232
8.94	10.404	8.94	9.63849
8.945	12.0796	8.945	11.2933
8.95	11.06	8.95	11.5089
8.955	11.3057	8.955	10.6602
8.96	11.1082	8.96	10.4053
8.965	10.9601	8.965	10.2141
8.97	10.8492	8.97	10.0704
8.975	10.7662	8.975	9.96257
8.98	10.704	8.98	9.88151
8.985	10.6574	8.985	9.82055
8.99	10.6226	8.99	9.77467
8.995	9.97114	8.995	10.3656
9	10.1059	9	10.1853
9.005	10.2071	9.005	10.05
9.01	10.2831	9.01	9.94833
9.015	10.3402	9.015	9.87192
9.02	10.3832	9.02	9.81446
9.025	10.4155	9.025	9.7712
9.03	10.4398	9.03	9.7386
9.035	10.4582	9.035	9.714
9.04	10.472	9.04	9.69538
9.045	10.4826	9.045	9.68126
9.05	9.86507	9.05	10.296
9.055	10.0253	9.055	10.1336
9.06	10.1456	9.06	10.0117
9.065	10.236	9.065	9.92006
9.07	10.3038	9.07	9.85119
9.075	10.3548	9.075	9.79938
9.08	10.3932	9.08	9.76037
9.085	10.4221	9.085	9.73095
9.09	10.4438	9.09	9.70873
9.095	10.4602	9.095	9.69191
9.1	10.4727	9.1	9.67913
9.105	9.85662	9.105	10.2949
9.11	10.018	9.11	10.1333
9.115	10.1391	9.115	10.0119
9.12	10.23	9.12	9.92069
9.125	10.2983	9.125	9.85215
9.13	10.3496	9.13	9.80058
9.135	10.3882	9.135	9.76175
9.14	10.0304	9.14	10.1194
9.145	10.1439	9.145	10.0056
9.15	10.2292	9.15	9.92016
9.155	10.2932	9.155	9.85589
9.16	9.71592	9.16	10.433
9.165	9.9063	9.165	10.2424
9.17	10.0492	9.17	10.0993
9.175	10.1565	9.175	9.99185
9.18	10.237	9.18	9.91109
9.185	10.2975	9.185	9.85036
9.19	10.343	9.19	9.80466
9.195	8.71186	9.195	8.10483
9.2	9.13946	9.2	8.48068
9.205	9.46025	9.205	8.76239
9.21	9.70092	9.21	8.9735
9.215	9.88151	9.215	9.13166
9.22	10.017	9.22	9.2501
9.225	10.1188	9.225	9.33876
9.23	9.56967	9.23	10.0306
9.235	9.78121	9.235	9.92596
9.24	9.93994	9.24	9.84734
9.245	9.67213	9.245	10.1751
9.25	10.2402	9.25	9.65202
9.255	9.89747	9.255	10.0283
9.26	10.0224	9.26	9.92848
9.265	10.1162	9.265	9.85345
9.27	10.1866	9.27	9.79699
9.275	10.2395	9.275	9.75448
9.28	9.65376	9.28	10.3479
9.285	9.83783	9.285	10.1695
9.29	9.97596	9.29	10.0356
9.295	10.0796	9.295	9.93492
9.3	10.1575	9.3	9.85927
9.305	10.2159	9.305	9.80236
9.31	10.2599	9.31	9.7595
9.315	10.2929	9.315	9.72719
9.32	10.3178	9.32	9.70278
9.325	10.3365	9.325	9.6843
9.33	10.3506	9.33	9.67027
9.335	10.3613	9.335	9.65957
9.34	10.3694	9.34	9.65137
9.345	10.3756	9.345	9.64505
9.35	9.9933	9.35	10.0271
9.355	9.46308	9.355	10.5571
9.36	9.68877	9.36	10.3311
9.365	9.85812	9.365	10.1614
9.37	9.98522	9.37	10.034
9.375	10.0806	9.375	9.93831
9.38	10.1523	9.38	9.86634
9.385	10.2061	9.385	9.81219
9.39	10.2465	9.39	9.77141
9.395	10.2769	9.395	9.74065
9.4	10.2998	9.4	9.71741
9.405	10.3171	9.405	9.69981
9.41	10.3301	9.41	9.68644
9.415	10.3399	9.415	9.67623
9.42	10.3474	9.42	9.66841
9.425	10.3531	9.425	9.66237
9.43	10.3574	9.43	9.65767
9.435	10.3608	9.435	9.65397
9.44	10.3633	9.44	9.65103
9.445	9.35294	9.445	10.6611
9.45	9.60036	9.45	10.4133
9.455	9.786	9.455	10.2273
9.46	9.92531	9.46	10.0876
9.465	10.0299	9.465	9.98271
9.47	10.1084	9.47	9.90384
9.475	10.1673	9.475	9.84452
9.48	11.877	9.48	11.4653
9.485	11.5085	9.485	11.0298
9.49	11.2322	9.49	10.703
9.495	11.0251	9.495	10.4578
9.5	10.8699	9.5	10.2737
9.505	10.7536	9.505	10.1355
9.51	10.6664	9.51	10.0317
9.515	10.6012	9.515	9.95367
9.52	10.5523	9.52	9.89502
9.525	10.5158	9.525	9.85087
9.53	9.863	9.53	10.4431
9.535	9.99679	9.535	10.2638
9.54	10.0972	9.54	10.1292
9.545	10.1727	9.545	10.0281
9.55	10.2293	9.55	9.95217
9.555	10.2719	9.555	9.89504
9.56	10.304	9.56	9.85205
9.565	10.3281	9.565	9.81965
9.57	10.3463	9.57	9.7952
9.575	10.3601	9.575	9.77671
9.58	10.3705	9.58	9.76269
9.585	10.3784	9.585	9.75203
9.59	10.3844	9.59	9.74388
9.595	10.3891	9.595	9.73762
9.6	10.3926	9.6	9.73277
9.605	10.3954	9.605	9.72899
9.61	10.0106	9.61	10.1129
9.615	10.104	9.615	10.0189
9.62	10.1742	9.62	9.94821
9.625	10.2269	9.625	9.89504
9.63	9.64102	9.63	10.4805
9.635	9.82501	9.635	10.2962
9.64	9.96309	9.64	10.1578
9.645	10.0668	9.645	10.0538
9.65	10.1446	9.65	9.97571
9.655	10.2031	9.655	9.91698
9.66	10.247	9.66	9.87278
9.665	10.2801	9.665	9.83948
9.67	10.305	9.67	9.81436
9.675	10.3238	9.675	9.79536
9.68	10.338	9.68	9.78097
9.685	10.3487	9.685	9.77002
9.69	10.3568	9.69	9.76167
9.695	10.3631	9.695	9.75525
9.7	10.3678	9.7	9.75028
9.705	10.3715	9.705	9.74641
9.71	10.3743	9.71	9.74336
9.715	10.3766	9.715	9.74092
9.72	9.99139	9.72	10.1259
9.725	9.45899	9.725	10.6581
9.73	10.3085	9.73	9.80832
9.735	9.69705	9.735	10.4196
9.74	9.86181	9.74	10.2546
9.745	9.98547	9.745	10.1308
9.75	10.0783	9.75	10.0377
9.755	10.148	9.755	9.96779
9.76	10.2004	9.76	9.91519
9.765	10.2398	9.765	9.87559
9.77	10.2695	9.77	9.84574
9.775	10.2918	9.775	9.82321
9.78	10.3087	9.78	9.80616
9.785	10.3214	9.785	9.79322
9.79	10.331	9.79	9.78337
9.795	10.3384	9.795	9.77583
9.8	10.344	9.8	9.77003
9.805	10.3483	9.805	9.76553
9.81	10.3516	9.81	9.76201
9.815	10.3542	9.815	9.75922
9.82	10.3562	9.82	9.75698
9.825	10.3578	9.825	9.75515
9.83	9.9722	9.83	10.1406
9.835	9.43946	9.835	10.6731
9.84	9.66327	9.84	10.4491
9.845	9.83123	9.845	10.2809
9.85	9.95729	9.85	10.1547
9.855	10.0519	9.855	10.0598
9.86	10.123	9.86	9.98852
9.865	10.1764	9.865	9.93491
9.87	10.2166	9.87	9.89455
9.875	10.2468	9.875	9.86414
9.88	10.2695	9.88	9.84118
9.885	10.2867	9.885	9.82381
9.89	10.2997	9.89	9.81064
9.895	10.3095	9.895	9.80061
9.9	10.317	9.9	9.79295
9.905	10.3227	9.905	9.78705
9.91	10.327	9.91	9.78247
9.915	10.3304	9.915	9.7789
9.92	10.333	9.92	9.77607
9.925	10.3351	9.925	9.7738
9.93	10.3367	9.93	9.77195
9.935	9.71258	9.935	10.3959
9.94	10.4933	9.94	9.61495
9.945	9.83021	9.945	10.2778
9.95	9.95625	9.95	10.1516
9.955	10.0509	9.955	10.0568
9.96	10.1219	9.96	9.9855
9.965	10.1753	9.965	9.9319
9.97	10.2155	9.97	9.89156
9.975	10.2457	9.975	9.86115
9.98	10.2684	9.98	9.8382
9.985	10.2856	9.985	9.82084
9.99	10.2985	9.99	9.80767
9.995	9.92142	9.995	10.1846
10	0.885481	10	-7.07829
10.005	1.33115	10.005	-7.55907
10.01	0.89276	10.01	-7.15579
10.015	0.942001	10.015	-7.24014
10.02	0.9751	10.02	-7.30835
10.025	0.996093	10.025	-7.36446
10.03	0.382526	10.03	-6.786
10.035	0.541791	10.035	-6.98038
10.04	0.657408	10.04	-7.1311
10.045	0.353341	10.045	-6.86215
10.05	0.890271	10.05	-7.43419
10.055	0.907271	10.055	-7.4863
10.06	0.529241	10.06	-7.14338
10.065	-0.00172805	10.065	-6.64752
10.07	0.606431	10.07	-7.29079
10.075	0.676852	10.075	-7.39633
10.08	2.39123	10.08	-5.81502
10.085	2.02231	10.085	-6.28486
10.09	1.11632	10.09	-6.01669
10.095	1.05629	10.095	-6.44376
10.1	2.2859	10.1	-4.71664
10.105	1.93528	10.105	-5.45896
10.11	1.04305	10.11	-5.39513
10.115	2.65874	10.115	-4.31003
10.12	2.21584	10.12	-5.15199
10.125	1.87989	10.125	-5.78834
10.13	2.66406	10.13	-3.97962
10.135	3.88621	10.135	-3.2367
10.14	2.52271	10.14	-3.70978
10.145	3.78501	10.145	-3.0273
10.15	3.07712	10.15	-4.17117
10.155	2.54248	10.155	-5.03389
10.16	4.84309	10.16	-1.72949
10.165	3.88635	10.165	-3.18103
10.17	3.16511	10.17	-4.27447
10.175	5.32581	10.175	-1.14306
10.18	3.87723	10.18	-2.33736
10.185	4.8344	10.185	-1.95431
10.19	6.60308	10.19	0.633637
10.195	5.24748	10.195	-1.35515
10.2	5.26711	10.2	-0.560553
10.205	7.58143	10.205	1.08736
10.21	7.05177	10.21	1.30775
10.215	5.62338	10.215	-0.805734
10.22	9.54477	10.22	2.60074
10.225	8.56959	10.225	2.48923
10.23	6.80714	10.23	0.126909
10.235	10.0911	10.235	3.73377
10.24	9.01981	10.24	3.39078
10.245	7.18535	10.245	0.854908
10.25	8.74998	10.25	2.66629
10.255	8.04013	10.255	2.62764
10.26	8.14221	10.26	1.98549
10.265	11.1738	10.265	5.23174
10.27	9.91341	10.27	4.61844
10.275	9.60267	10.275	3.5454
10.28	10.6594	10.28	4.80319
10.285	8.52882	10.285	2.05864
10.29	9.8716	10.29	3.71372
10.295	10.274	10.295	5.6104
10.3	9.94149	10.3	4.38722
10.305	9.31659	10.305	3.86713
10.31	11.5596	10.31	7.44881
10.315	10.5698	10.315	6.22552
10.32	10.2209	10.32	4.93665
10.325	12.5276	10.325	8.08515
10.33	13.0097	10.33	8.44389
10.335	12.1138	10.335	6.69076
10.34	12.9981	10.34	10.5036
10.345	11.7532	10.345	8.69019
10.35	12.4916	10.35	9.01127
10.355	13.958	10.355	11.7217
10.36	12.5266	10.36	9.70479
10.365	13.1252	10.365	9.87339
10.37	13.4746	10.37	13.482
10.375	11.8236	10.375	11.5206
10.38	14.8095	10.38	15.8408
10.385	13.2488	10.385	12.9987
10.39	11.6983	10.39	11.2702
10.395	14.3728	10.395	16.1519
10.4	12.5735	10.4	13.7363
10.405	11.2261	10.405	11.9458
10.41	12.7745	10.41	14.7289
10.415	11.3998	10.415	12.7721
10.42	10.3709	10.42	11.3258
10.425	12.1583	10.425	14.3672
10.43	10.3375	10.43	13.2296
10.435	9.21043	10.435	12.1616
10.44	9.64074	10.44	13.4395
10.445	10.357	10.445	14.0572
10.45	9.62754	10.45	12.5092
10.455	12.6488	10.455	21.127
10.46	11.3685	10.46	17.9535
10.465	11.4198	10.465	21.2475
10.47	10.0633	10.47	18.5338
10.475	9.43024	10.475	16.1384
10.48	10.1155	10.48	19.8677
10.485	9.48107	10.485	17.234
10.49	8.62089	10.49	15.6676
10.495	8.47787	10.495	17.3459
10.5	7.8629	10.5	15.8352
10.505	7.16075	10.505	14.9677
10.51	7.37773	10.51	16.929
10.515	7.41979	10.515	15.2436
10.52	7.06716	10.52	14.3885
10.525	9.35729	10.525	17.879
10.53	7.90912	10.53	17.0841
10.535	7.831	10.535	15.5048
10.54	8.15892	10.54	20.6205
10.545	8.02049	10.545	18.2632
10.55	7.91962	10.55	16.5174
10.555	8.35151	10.555	18.0565
10.56	7.54766	10.56	17.0622
10.565	5.51874	10.565	14.4369
10.57	7.19038	10.57	19.2634
10.575	6.67066	10.575	18.0786
10.58	7.53274	10.58	15.9636
10.585	8.9827	10.585	23.5918
10.59	9.04539	10.59	20.4581
10.595	8.08828	10.595	19.1377
10.6	8.26299	10.6	20.6113
10.605	7.50793	10.605	19.3267
10.61	7.95515	10.61	17.3756
10.615	9.84344	10.615	21.0469
10.62	7.83127	10.62	17.3204
10.625	7.83595	10.625	16.3395
10.63	7.21737	10.63	16.252
10.635	8.56845	10.635	17.7283
10.64	7.79164	10.64	17.35
10.645	8.84821	10.645	15.4533
10.65	8.16191	10.65	15.5357
10.655	9.56036	10.655	17.0415
10.66	9.35167	10.66	16.1529
10.665	7.54127	10.665	13.836
10.67	10.3127	10.67	17.9589
10.675	10.2042	10.675	16.661
10.68	11.7068	10.68	17.4609
10.685	8.7632	10.685	15.5255
10.69	9.85369	10.69	14.1042
10.695	9.201	10.695	14.5355
10.7	10.2184	10.7	13.3787
10.705	10.3749	10.705	13.1444
10.71	10.4189	10.71	13.0688
10.715	10.5697	10.715	12.9212
10.72	9.42114	10.72	10.7682
10.725	11.4208	10.725	12.9518
10.73	10.109	10.73	10.7954
10.735	8.35873	10.735	9.94251
10.74	10.8193	10.74	12.1891
10.745	10.3382	10.745	9.59493
10.75	12.7507	10.75	11.5357
10.755	10.9877	10.755	9.95805
10.76	9.91432	10.76	8.52404
10.765	10.9306	10.765	8.95612
10.77	9.90896	10.77	7.76036
10.775	10.1901	10.775	9.14505
10.78	11.7301	10.78	8.88167
10.785	10.3404	10.785	7.92522
10.79	9.7856	10.79	6.71861
10.795	10.8593	10.795	7.65283
10.8	11.4086	10.8	8.63674
10.805	10.6572	10.805	7.23454
10.81	11.3449	10.81	8.26066
10.815	10.4193	10.815	7.16819
10.82	12.1402	10.82	7.26291
10.825	12.5121	10.825	8.28004
10.83	11.4474	10.83	7.08308
10.835	10.617	10.835	6.21565
10.84	11.6672	10.84	7.22127
10.845	10.7215	10.845	6.40552
10.85	9.49529	10.85	6.30905
10.855	9.20652	10.855	5.60423
10.86	10.4827	10.86	6.91208
10.865	9.37302	10.865	6.65649
10.87	10.6568	10.87	7.678
10.875	9.93977	10.875	6.82074
10.88	10.9878	10.88	7.92131
10.885	9.84742	10.885	7.36985
10.89	9.62309	10.89	6.32388
10.895	8.74689	10.895	6.24589
10.9	8.19613	10.9	6.07956
10.905	10.0794	10.905	6.98783
10.91	8.98458	10.91	6.87307
10.915	8.64888	10.915	6.30019
10.92	8.16115	10.92	6.10506
10.925	7.32374	10.925	6.42892
10.93	7.18395	10.93	6.18213
10.935	9.37543	10.935	7.03009
10.94	8.03474	10.94	7.34721
10.945	7.99744	10.945	6.61544
10.95	7.73352	10.95	6.30119
10.955	7.92798	10.955	5.67172
10.96	7.31048	10.96	5.9616
10.965	8.51312	10.965	7.84265
10.97	8.53849	10.97	6.82693
10.975	7.79418	10.975	6.82714
10.98	8.24876	10.98	5.81314
10.985	7.90925	10.985	9.06254
10.99	7.35163	10.99	8.4995
10.995	6.84368	10.995	8.16565
11	6.56407	11	7.81261
11.005	8.64563	11.005	8.58606
11.01	8.08145	11.01	7.98845
11.015	7.51827	11.015	7.67902
11.02	7.72177	11.02	6.81981
11.025	7.39994	11.025	6.64859
11.03	7.01851	11.03	6.65897
11.035	7.35832	11.035	6.03962
11.04	7.55315	11.04	8.96466
11.045	7.78036	11.045	7.77434
11.05	5.98683	11.05	8.84433
11.055	7.65497	11.055	9.96309
11.06	7.88109	11.06	8.52418
11.065	7.33771	11.065	8.15678
11.07	7.03155	11.07	7.77868
11.075	7.42782	11.075	6.86802
11.08	8.52903	11.08	8.71063
11.085	7.94588	11.085	8.19871
11.09	8.13443	11.09	7.18772
11.095	7.41447	11.095	7.2897
11.1	7.11633	11.1	7.12321
11.105	7.51863	11.105	6.37128
11.11	8.62437	11.11	8.33298
11.115	8.04463	11.115	7.9104
11.12	7.84879	11.12	7.35339
11.125	7.37083	11.125	7.26561
11.13	8.77913	11.13	8.76268
11.135	8.18492	11.135	8.23308
11.14	7.64958	11.14	7.92447
11.145	7.97496	11.145	6.96508
11.15	9.26155	11.15	8.53269
11.155	8.33754	11.155	8.29454
11.16	8.51187	11.16	7.24756
11.165	8.64529	11.165	6.45862
11.17	8.68538	11.17	9.25665
11.175	8.79659	11.175	7.97125
11.18	7.87026	11.18	8.01596
11.185	8.74616	11.185	9.80862
11.19	8.86098	11.19	8.3925
11.195	8.71125	11.195	7.56529
11.2	7.97903	11.2	7.56386
11.205	8.29723	11.205	6.69446
11.21	7.91309	11.21	6.66425
11.215	9.6778	11.215	7.91862
11.22	8.96906	11.22	7.58896
11.225	9.06348	11.225	6.71482
11.23	9.69984	11.23	8.82356
11.235	9.00953	11.235	8.27002
11.24	8.73084	11.24	7.61495
11.245	7.80385	11.245	7.84074
11.25	9.25731	11.25	9.1913
11.255	8.21996	11.255	9.02903
11.26	8.55076	11.26	7.79769
11.265	8.17609	11.265	7.4961
11.27	9.32246	11.27	9.1725
11.275	9.39876	11.275	7.91069
11.28	9.45871	11.28	6.9608
11.285	8.01691	11.285	7.73435
11.29	7.80076	11.29	7.44851
11.295	9.93004	11.295	8.27273
11.3	8.38936	11.3	8.72599
11.305	8.33759	11.305	7.96143
11.31	8.05788	11.31	7.62812
11.315	9.03696	11.315	9.51931
11.32	9.22922	11.32	8.17725
11.325	8.98921	11.325	7.55418
11.33	9.75667	11.33	9.46948
11.335	9.16474	11.335	8.771
11.34	8.95989	11.34	8.00737
11.345	7.70138	11.345	8.53883
11.35	8.24821	11.35	7.44603
11.355	9.701	11.355	8.91386
11.36	9.14027	11.36	8.36263
11.365	9.34577	11.365	7.32251
11.37	9.11571	11.37	6.92595
11.375	8.07685	11.375	7.49421
11.38	8.54701	11.38	6.67044
11.385	10.1809	11.385	8.10154
11.39	9.03744	11.39	8.24127
11.395	8.66327	11.395	7.86206
11.4	7.75773	11.4	8.20196
11.405	7.70242	11.405	7.83243
11.41	7.90004	11.41	7.31558
11.415	9.23427	11.415	9.0721
11.42	9.06458	11.42	8.2575
11.425	8.69648	11.425	7.88681
11.43	7.7955	11.43	8.23312
11.435	7.74362	11.435	7.86844
11.44	7.94382	11.44	7.35524
11.445	9.51853	11.445	8.87601
11.45	9.67474	11.45	7.73909
11.455	9.40774	11.455	7.27001
11.46	8.3412	11.46	7.78397
11.465	8.79063	11.465	6.91957
11.47	8.74355	11.47	6.65489
11.475	7.84194	11.475	7.32215
11.48	7.78958	11.48	7.19821
11.485	8.79081	11.485	9.39502
11.49	8.75324	11.49	8.52884
11.495	9.10973	11.495	7.49405
11.5	7.74199	11.5	8.35256
11.505	8.34739	11.505	7.36474
11.51	8.41729	11.51	7.00754
11.515	8.2289	11.515	6.97995
11.52	8.32673	11.52	6.71965
11.525	8.78476	11.525	6.13927
11.53	7.88011	11.53	6.95166
11.535	9.10393	11.535	8.98895
11.54	7.50241	11.54	9.73407
11.545	7.78694	11.545	8.80677
11.55	6.27003	11.55	9.84115
11.555	6.85942	11.555	8.88941
11.56	7.29918	11.56	8.17742
11.565	7.00123	11.565	8.27075
11.57	7.78571	11.57	7.33236
11.575	7.98991	11.575	7.01226
11.58	7.51528	11.58	7.3995
11.585	7.7803	11.585	7.06849
11.59	7.97677	11.59	6.82208
11.595	7.88329	11.595	6.87763
11.6	9.7177	11.6	8.34513
11.605	9.44033	11.605	7.79672
11.61	8.99149	11.61	7.62581
11.615	8.89399	11.615	7.25808
11.62	9.20553	11.62	6.5972
11.625	7.80407	11.625	7.73623
11.63	7.99724	11.63	7.34583
11.635	8.13983	11.635	7.05489
11.64	8.00596	11.64	7.07709
11.645	8.14467	11.645	6.85421
11.65	8.24641	11.65	6.68891
11.655	7.69495	11.655	7.1923
11.66	9.56773	11.66	8.61384
11.665	9.70609	11.665	7.64405
11.67	8.17476	11.67	8.55143
11.675	8.27053	11.675	7.98731
11.68	8.72703	11.68	7.17918
11.685	8.05977	11.685	7.58233
11.69	8.18032	11.69	7.26332
11.695	8.89393	11.695	6.40049
11.7	7.55262	11.7	7.6295
11.705	8.17784	11.705	6.91968
11.71	8.26261	11.71	6.77108
11.715	8.3239	11.715	6.66154
11.72	8.60611	11.72	6.34276
11.725	7.32311	11.725	7.59796
11.73	7.60511	11.73	7.29472
11.735	7.18884	11.735	7.69469
11.74	7.49762	11.74	7.3733
11.745	7.10142	11.745	7.75966
11.75	7.42525	11.75	7.42808
11.755	8.29131	11.755	6.55583
11.76	9.35519	11.76	8.81771
11.765	9.12321	11.765	8.2419
11.77	8.94693	11.77	7.81198
11.775	8.81245	11.775	7.49148
11.78	8.7093	11.78	7.25305
11.785	8.00417	11.785	7.70165
11.79	8.33484	11.79	7.17824
11.795	8.33916	11.795	7.02904
11.8	7.71462	11.8	7.54456
11.805	7.8672	11.805	7.30988
11.81	7.97935	11.81	7.13582
11.815	7.67422	11.815	7.39417
11.82	7.82495	11.82	7.20802
11.825	7.9357	11.825	7.07036
11.83	7.62952	11.83	7.35602
11.835	7.77946	11.835	7.19035
11.84	7.88961	11.84	7.06805
11.845	7.34445	11.845	7.60377
11.85	7.79509	11.85	7.14571
11.855	7.88936	11.855	7.04553
11.86	7.95776	11.86	6.97235
11.865	8.2453	11.865	6.68089
11.87	8.63167	11.87	9.62203
11.875	9.14031	11.875	8.30694
11.88	7.25831	11.88	9.58379
11.885	7.086	11.885	9.30195
11.89	7.96182	11.89	8.0852
11.895	7.36764	11.895	8.42339
11.9	7.54299	11.9	8.05574
11.905	7.91074	11.905	7.54346
11.91	7.55591	11.91	7.78959
11.915	7.66936	11.915	7.59432
11.92	7.36521	11.92	7.8368
11.925	7.51667	11.925	7.63879
11.93	7.24102	11.93	7.87922
11.935	7.41385	11.935	7.67967
11.94	8.16665	11.94	6.90652
11.945	7.71874	11.945	7.33887
11.95	7.76238	11.95	7.28327
11.955	8.41828	11.955	6.61808
11.96	8.28464	11.96	6.74446
11.965	8.18211	11.965	6.84124
11.97	8.34144	11.97	6.67729
11.975	8.21724	11.975	6.79774
11.98	8.12178	11.98	6.89007
11.985	9.32633	11.985	9.01366
11.99	8.95843	11.99	8.57562
11.995	8.91876	11.995	8.01058
12	8.64531	12	7.83022
12.005	8.05099	12.005	8.08393
12.01	7.98483	12.01	7.89436
12.015	6.92049	12.015	8.76664
12.02	7.75056	12.02	7.79226
12.025	7.36061	12.025	8.07372
12.03	7.44772	12.03	7.90497
12.035	7.74929	12.035	7.54191
12.04	7.73177	12.04	7.51305
12.045	7.71633	12.045	7.49343
12.05	7.941	12.05	7.24221
12.055	7.86579	12.055	7.29724
12.06	7.42015	12.06	7.72748
12.065	7.07854	12.065	8.05728
12.07	7.82738	12.07	7.29932
12.075	7.37649	12.075	7.7431
12.08	8.04337	12.08	7.07062
12.085	9.19642	12.085	9.24391
12.09	8.78989	12.09	8.84318
12.095	9.10819	12.095	7.9192
12.1	8.33442	12.1	8.23849
12.105	8.13368	12.105	8.09815
12.11	8.60631	12.11	7.36948
12.115	7.94829	12.115	7.83524
12.12	8.45983	12.12	7.17928
12.125	8.21794	12.125	7.31264
12.13	7.64728	12.13	7.80167
12.135	7.8374	12.135	7.55009
12.14	7.7363	12.14	7.60488
12.145	8.28367	12.145	7.02256
12.15	8.30717	12.15	6.97261
12.155	8.0811	12.155	7.17862
12.16	7.52231	12.16	7.72213
12.165	8.10828	12.165	7.12449
12.17	7.53525	12.17	7.68853
12.175	7.48505	12.175	7.73177
12.18	8.07059	12.18	7.14078
12.185	7.49724	12.185	7.70982
12.19	8.07228	12.19	7.13132
12.195	7.49105	12.195	7.70973
12.2	8.06017	12.2	7.13826
12.205	7.47451	12.205	7.72194
12.21	7.65337	12.21	7.54137
12.215	7.54381	12.215	7.64942
12.22	8.08483	12.22	7.10704
12.225	8.75653	12.225	9.76489
12.23	8.99634	12.23	8.72026
12.235	8.55066	12.235	8.56215
12.24	8.45265	12.24	8.20713
12.245	8.13546	12.245	8.18435
12.25	8.52077	12.25	7.54388
12.255	8.42273	12.255	7.45036
12.26	8.10552	12.26	7.62372
12.265	8.10387	12.265	7.51729
12.27	7.472	12.27	8.06792
12.275	6.99073	12.275	8.48806
12.28	7.2479	12.28	8.18486
12.285	7.82257	12.285	7.57549
12.29	8.25349	12.29	7.11834
12.295	7.56419	12.295	7.78779
12.3	8.05228	12.3	7.28463
12.305	7.40584	12.305	7.91957
12.31	7.92607	12.31	7.39053
12.315	8.31618	12.315	6.99363
12.32	7.59625	12.32	7.70827
12.325	8.06137	12.325	7.23901
12.33	8.02318	12.33	7.27389
12.335	7.75085	12.335	7.54356
12.34	8.1698	12.34	7.12243
12.345	8.48394	12.345	6.80647
12.35	8.33251	12.35	6.95633
12.355	7.58831	12.355	7.69918
12.36	6.63584	12.36	8.65045
12.365	7.30841	12.365	7.97678
12.37	6.41339	12.37	8.8708
12.375	7.12905	12.375	8.1542
12.38	7.04023	12.38	8.24213
12.385	7.20986	12.385	8.07164
12.39	7.71887	12.39	7.5618
12.395	8.10054	12.395	7.17931
12.4	7.99977	12.4	7.27929
12.405	9.3459	12.405	9.26317
12.41	8.94086	12.41	8.86378
12.415	9.01888	12.415	8.18229
12.42	7.67796	12.42	9.07046
12.425	8.05922	12.425	8.34949
12.43	7.95814	12.43	8.19563
12.435	8.26414	12.435	7.69828
12.44	7.8681	12.44	7.95067
12.445	8.19427	12.445	7.5166
12.45	8.05189	12.45	7.57791
12.455	7.70143	12.455	7.86742
12.46	7.67484	12.46	7.84814
12.465	8.0367	12.465	7.45174
12.47	7.92108	12.47	7.5413
12.475	8.21616	12.475	7.22652
12.48	7.81193	12.48	7.61583
12.485	7.74502	12.485	7.67141
12.49	8.07663	12.49	7.33114
12.495	7.93833	12.495	7.4628
12.5	8.2164	12.5	7.1796
12.505	7.41246	12.505	7.97955
12.51	7.81458	12.51	7.57429
12.515	7.72915	12.515	7.6572
12.52	8.04688	12.52	7.33745
12.525	7.89816	12.525	7.48449
12.53	8.16842	12.53	7.21283
12.535	7.35862	12.535	8.02143
12.54	7.75634	12.54	7.62266
12.545	7.66761	12.545	7.71045
12.55	7.98287	12.55	7.39434
12.555	8.21924	12.555	7.15718
12.56	7.77097	12.56	7.60471
12.565	7.67102	12.565	7.70395
12.57	7.97786	12.57	7.39644
12.575	7.82097	12.575	7.55267
12.58	8.0851	12.58	7.2879
12.585	8.28313	12.585	7.08924
12.59	7.41915	12.59	7.95259
12.595	7.77624	12.595	7.59489
12.6	7.27009	12.6	8.10043
12.605	7.65414	12.605	7.71577
12.61	7.94211	12.61	7.4272
12.615	7.14558	12.615	8.22312
12.62	7.16631	12.62	8.20179
12.625	7.56365	12.625	7.80385
12.63	7.86159	12.63	7.50532
12.635	7.69802	12.635	7.66829
12.64	7.95714	12.64	7.40857
12.645	8.15141	12.645	7.21371
12.65	7.91009	12.65	7.45443
12.655	8.1109	12.655	7.25302
12.66	7.249	12.66	8.11432
12.665	7.60765	12.665	7.75508
12.67	7.48961	12.67	7.87251
12.675	7.78288	12.675	7.57865
12.68	8.00276	12.68	7.35818
12.685	7.78065	12.685	7.57969
12.69	7.99586	12.69	7.36388
12.695	8.1572	12.695	7.20195
12.7	7.89118	12.7	7.46737
12.705	8.07346	12.705	7.28449
12.71	7.82315	12.71	7.5342
12.715	8.01721	12.715	7.33955
12.72	7.53721	12.72	7.81896
12.725	7.41346	12.725	7.94211
12.73	7.31549	12.73	8.03948
12.735	7.6238	12.735	7.73057
12.74	7.46802	12.74	7.88576
12.745	7.73298	12.745	7.6202
12.75	9.59702	12.75	9.08636
12.755	8.95715	12.755	8.92197
12.76	8.85907	12.76	8.41676
12.765	8.78545	12.765	8.0378
12.77	8.34323	12.77	8.14046
12.775	8.00644	12.775	8.22249
12.78	8.13565	12.78	7.90208
12.785	7.84556	12.785	8.04867
12.79	7.38433	12.79	8.40217
12.795	7.66162	12.795	8.04396
12.8	7.48258	12.8	8.1622
12.805	7.73012	12.805	7.86896
12.81	7.52877	12.81	8.03591
12.815	7.37262	12.815	8.16616
12.82	7.63732	12.82	7.88192
12.825	7.83579	12.825	7.66869
12.83	7.59764	12.83	7.89565
12.835	7.80084	12.835	7.68395
12.84	7.95318	12.84	7.52512
12.845	8.06738	12.845	7.40595
12.85	7.76603	12.85	7.70345
12.855	7.92183	12.855	7.54466
12.86	7.65168	12.86	7.81246
12.865	7.83088	12.865	7.63139
12.87	7.96522	12.87	7.49553
12.875	7.67897	12.875	7.78052
12.88	7.8461	12.88	7.61235
12.885	7.58444	12.885	7.87311
12.89	7.77001	12.89	7.68675
12.895	7.90913	12.895	7.54693
12.9	7.62647	12.9	7.82896
12.905	7.79629	12.905	7.65856
12.91	7.92359	12.91	7.5307
12.915	7.63207	12.915	7.8217
12.92	7.79524	12.92	7.65803
12.925	7.53062	12.925	7.92216
12.93	7.71396	12.93	7.73834
12.935	7.85141	12.935	7.60042
12.94	7.95444	12.94	7.49693
12.945	8.03166	12.945	7.41925
12.95	8.08953	12.95	7.36093
12.955	7.74592	12.955	7.70409
12.96	7.87002	12.96	7.57953
12.965	7.96305	12.965	7.48606
12.97	8.03276	12.97	7.4159
12.975	7.69805	12.975	7.75017
12.98	7.82882	12.98	7.61895
12.985	7.92684	12.985	7.52048
12.99	7.61336	12.99	7.83352
12.995	7.76006	12.995	7.68638
13	7.48308	13	7.96291
13.005	7.65716	13.005	7.78839
13.01	7.40072	13.01	8.04439
13.015	7.59019	13.015	7.85447
13.02	7.73225	13.02	7.71198
13.025	7.83873	13.025	7.60505
13.03	7.5316	13.03	7.91174
13.035	7.68305	13.035	7.75984
13.04	7.79659	13.04	7.64586
13.045	7.88169	13.045	7.56032
13.05	7.55851	13.05	7.88305
13.055	7.69794	13.055	7.74318
13.06	7.41551	13.06	8.02517
13.065	7.5855	13.065	7.85474
13.07	7.71293	13.07	7.72686
13.075	8.04699	13.075	7.39236
13.08	8.05607	13.08	7.38284
13.085	7.43734	13.085	8.00112
13.09	7.83505	13.09	7.60297
13.095	7.26639	13.095	8.17118
13.1	8.0886	13.1	7.34854
13.105	8.08192	13.105	7.35477
13.11	7.45138	13.11	7.98486
13.115	8.22717	13.115	7.20863
13.12	7.79875	13.12	7.63661
13.125	7.85924	13.125	7.57568
13.13	7.90455	13.13	7.52992
13.135	7.55153	13.135	7.8825
13.14	7.66859	13.14	7.765
13.145	7.75632	13.145	7.67683
13.15	7.82206	13.15	7.61064
13.155	7.48437	13.155	7.94788
13.16	7.61292	13.16	7.8189
13.165	7.70927	13.165	7.7221
13.17	7.78148	13.17	7.64945
13.175	7.83559	13.175	7.5949
13.18	7.87611	13.18	7.55393
13.185	7.90645	13.185	7.52315
13.19	7.5422	13.19	7.88695
13.195	7.65083	13.195	7.77788
13.2	7.73225	13.2	7.69602
13.205	7.79326	13.205	7.63457
13.21	7.83896	13.21	7.58842
13.215	7.87318	13.215	7.55376
13.22	7.8988	13.22	7.5277
13.225	7.531	13.225	7.89505
13.23	7.63697	13.23	7.78864
13.235	7.7164	13.235	7.70877
13.24	7.77591	13.24	7.64882
13.245	7.43354	13.245	7.99074
13.25	8.18406	13.25	7.23978
13.255	8.12362	13.255	7.29977
13.26	8.07824	13.26	7.34471
13.265	8.04415	13.265	7.37835
13.27	7.63159	13.27	7.79048
13.275	7.70397	13.275	7.71765
13.28	7.75821	13.28	7.66297
13.285	7.79884	13.285	7.6219
13.29	7.82925	13.29	7.59104
13.295	7.85201	13.295	7.56784
13.3	7.86903	13.3	7.55038
13.305	7.88174	13.305	7.53722
13.31	7.50427	13.31	7.91425
13.315	7.60298	13.315	7.81509
13.32	7.67696	13.32	7.74067
13.325	7.7324	13.325	7.68479
13.33	7.77392	13.33	7.64283
13.335	7.41806	13.335	7.99824
13.34	7.53298	13.34	7.88288
13.345	7.61912	13.345	7.7963
13.35	7.68366	13.35	7.73131
13.355	10.0229	13.355	8.72242
13.36	8.87765	13.36	9.06358
13.365	8.64195	13.365	8.69614
13.37	8.70367	13.37	8.18198
13.375	8.50853	13.375	8.03773
13.38	8.36214	13.38	7.92951
13.385	8.25231	13.385	7.8483
13.39	8.1699	13.39	7.78735
13.395	8.10807	13.395	7.7416
13.4	8.06166	13.4	7.70725
13.405	8.02682	13.405	7.68144
13.41	7.61371	13.41	8.049
13.415	7.68571	13.415	7.94276
13.42	7.73968	13.42	7.86304
13.425	7.39318	13.425	8.19016
13.43	7.51513	13.43	8.05359
13.435	7.60656	13.435	7.95113
13.44	7.67511	13.44	7.87424
13.445	7.72648	13.445	7.81653
13.45	7.76498	13.45	7.77321
13.455	8.4193	13.455	7.1152
13.46	8.28673	13.46	7.24493
13.465	7.5618	13.465	7.96766
13.47	8.26682	13.47	7.26092
13.475	8.17228	13.475	7.3541
13.48	8.10134	13.48	7.42394
13.485	8.04811	13.485	7.47628
13.49	7.6212	13.49	7.90244
13.495	7.68286	13.495	7.84015
13.5	7.72907	13.5	7.7934
13.505	7.76369	13.505	7.75829
13.51	7.78963	13.51	7.73192
13.515	7.4221	13.515	8.09905
13.52	7.52829	13.52	7.99249
13.525	7.6079	13.525	7.91253
13.53	7.66758	13.53	7.85252
13.535	7.7123	13.535	7.80747
13.54	7.74581	13.54	7.77364
13.545	7.77092	13.545	7.74823
13.55	8.41519	13.55	7.10365
13.555	7.64961	13.555	7.86893
13.56	7.69867	13.56	7.81957
13.565	8.36091	13.565	7.15704
13.57	7.60881	13.57	7.90885
13.575	8.29346	13.575	7.22391
13.58	7.79669	13.58	7.72038
13.585	7.80595	13.585	7.71083
13.59	7.81286	13.59	7.70363
13.595	7.81802	13.595	7.69818
13.6	7.82185	13.6	7.69406
13.605	7.8247	13.605	7.69092
13.61	7.8268	13.61	7.68853
13.615	7.4414	13.615	8.07364
13.62	7.53418	13.62	7.98056
13.625	7.60374	13.625	7.91072
13.63	7.65588	13.63	7.85829
13.635	7.69495	13.635	7.81893
13.64	7.72422	13.64	7.78936
13.645	8.37163	13.645	7.14167
13.65	7.6084	13.65	7.90461
13.655	8.2847	13.655	7.22802
13.66	8.16862	13.66	7.34381
13.665	8.08153	13.665	7.43061
13.67	8.01618	13.67	7.49566
13.675	7.96715	13.675	7.54441
13.68	7.93034	13.68	7.58093
13.685	7.9027	13.685	7.60828
13.69	7.88194	13.69	7.62875
13.695	7.86634	13.695	7.64406
13.7	7.85461	13.7	7.65549
13.705	7.84579	13.705	7.66403
13.71	7.83914	13.71	7.67039
13.715	7.83412	13.715	7.67512
13.72	7.83033	13.72	7.67862
13.725	7.82745	13.725	7.68121
13.73	7.82527	13.73	7.6831
13.735	7.8236	13.735	7.68448
13.74	7.82232	13.74	7.68547
13.745	8.44681	13.745	7.0607
13.75	8.29187	13.75	7.21534
13.755	8.17564	13.755	7.33128
13.76	8.08844	13.76	7.41819
13.765	8.02301	13.765	7.48333
13.77	7.97391	13.77	7.53214
13.775	7.93705	13.775	7.56871
13.78	7.52244	13.78	7.98304
13.785	7.59331	13.785	7.91187
13.79	7.64644	13.79	7.85846
13.795	7.68625	13.795	7.81835
13.8	7.71608	13.8	7.78823
13.805	7.73843	13.805	7.76559
13.81	7.75516	13.81	7.74857
13.815	7.76768	13.815	7.73577
13.82	7.77704	13.82	7.72612
13.825	7.78403	13.825	7.71884
13.83	7.78924	13.83	7.71333
13.835	7.79313	13.835	7.70916
13.84	7.79601	13.84	7.70599
13.845	7.79814	13.845	7.70357
13.85	7.79971	13.85	7.7017
13.855	8.42634	13.855	7.07479
13.86	8.27301	13.86	7.22782
13.865	7.53251	13.865	7.96804
13.87	8.22585	13.87	7.2744
13.875	8.12256	13.875	7.37741
13.88	8.04507	13.88	7.45461
13.885	7.98691	13.885	7.51247
13.89	7.94327	13.89	7.55582
13.895	7.91052	13.895	7.58829
13.9	7.88592	13.9	7.6126
13.905	7.86744	13.905	7.63079
13.91	7.85356	13.91	7.64438
13.915	7.84312	13.915	7.65453
13.92	7.83526	13.92	7.6621
13.925	7.82933	13.925	7.66774
13.93	7.82486	13.93	7.67192
13.935	7.82148	13.935	7.67501
13.94	7.81892	13.94	7.67728
13.945	7.81697	13.945	7.67894
13.95	7.81548	13.95	7.68014
13.955	7.81433	13.955	7.681
13.96	7.81345	13.96	7.6816
13.965	7.81275	13.965	7.682
13.97	7.8122	13.97	7.68226
13.975	7.81176	13.975	7.68241
13.98	7.81141	13.98	7.68248
13.985	7.81111	13.985	7.68248
13.99	8.43634	13.99	7.05696
13.995	8.28196	13.995	7.21105
14	7.54067	14	7.95205
14.005	7.84648	14.005	7.64595
14.01	7.83441	14.01	7.65774
14.015	7.82532	14.015	7.66653
14.02	7.81848	14.02	7.67308
14.025	8.20027	14.025	7.291
14.03	8.10472	14.03	7.38626
14.035	8.03303	14.035	7.45766
14.04	7.97924	14.04	7.51117
14.045	7.93887	14.045	7.55125
14.05	7.90856	14.05	7.58127
14.055	7.8858	14.055	7.60373
14.06	7.86871	14.06	7.62054
14.065	7.46891	14.065	8.02004
14.07	7.5509	14.07	7.93776
14.075	7.61237	14.075	7.87601
14.08	7.65844	14.08	7.82964
14.085	7.69297	14.085	7.79483
14.09	7.71884	14.09	7.76867
14.095	7.73822	14.095	7.749
14.1	7.75272	14.1	7.73421
14.105	7.76357	14.105	7.72307
14.11	7.77168	14.11	7.71467
14.115	8.40322	14.115	7.08284
14.12	8.25357	14.12	7.2322
14.125	7.51583	14.125	7.96965
14.13	8.21125	14.13	7.27394
14.135	8.10952	14.135	7.37538
14.14	8.03319	14.14	7.45142
14.145	7.97592	14.145	7.5084
14.15	7.93294	14.15	7.55109
14.155	7.90068	14.155	7.58306
14.16	7.87646	14.16	7.60699
14.165	7.85827	14.165	7.62489
14.17	7.8446	14.17	7.63827
14.175	7.83432	14.175	7.64826
14.18	7.82658	14.18	7.65571
14.185	7.82076	14.185	7.66125
14.19	7.81636	14.19	7.66535
14.195	7.81304	14.195	7.66839
14.2	7.81052	14.2	7.67062
14.205	7.8086	14.205	7.67224
14.21	7.80714	14.21	7.67342
14.215	7.80602	14.215	7.67425
14.22	7.80515	14.22	7.67483
14.225	7.80447	14.225	7.67521
14.23	7.80394	14.23	7.67546
14.235	7.80351	14.235	7.6756
14.24	7.80316	14.24	7.67565
14.245	7.80288	14.245	7.67565
14.25	7.80264	14.25	7.6756
14.255	7.80243	14.255	7.67552
14.26	7.80225	14.26	7.67541
14.265	7.41514	14.265	8.06223
14.27	7.50665	14.27	7.97043
14.275	7.9622	14.275	7.51459
14.28	7.53503	14.28	7.94147
14.285	8.22197	14.285	7.25424
14.29	8.11387	14.29	7.36205
14.295	8.03278	14.295	7.44285
14.3	7.97193	14.3	7.50341
14.305	7.92627	14.305	7.54878
14.31	7.892	14.31	7.58276
14.315	7.86627	14.315	7.6082
14.32	7.84695	14.32	7.62723
14.325	7.83244	14.325	7.64145
14.33	7.82152	14.33	7.65208
14.335	7.81331	14.335	7.66
14.34	7.80713	14.34	7.66589
14.345	7.80247	14.345	7.67026
14.35	7.79895	14.35	7.67349
14.355	7.79628	14.355	7.67587
14.36	7.79426	14.36	7.6776
14.365	7.79271	14.365	7.67886
14.37	7.79153	14.37	7.67975
14.375	7.79062	14.375	7.68037
14.38	7.78991	14.38	7.68079
14.385	7.78935	14.385	7.68106
14.39	7.78891	14.39	7.68121
14.395	7.78855	14.395	7.68128
14.4	7.78826	14.4	7.68128
14.405	7.78801	14.405	7.68124
14.41	7.7878	14.41	7.68116
14.415	7.78762	14.415	7.68105
14.42	7.78746	14.42	7.68092
14.425	7.78732	14.425	7.68078
14.43	7.78718	14.43	7.68062
14.435	7.78705	14.435	7.68046
14.44	7.78693	14.44	7.68029
14.445	7.78682	14.445	7.68012
14.45	7.78671	14.45	7.67994
14.455	7.7866	14.455	7.67976
14.46	7.39955	14.46	8.06652
14.465	7.87804	14.465	7.58773
14.47	9.75896	14.47	9.03733
14.475	8.65185	14.475	9.34048
14.48	9.45722	14.48	7.93213
14.485	8.43062	14.485	8.50645
14.49	8.90942	14.49	7.6884
14.495	8.01976	14.495	8.3236
14.5	8.21432	14.5	7.93816
14.505	8.50577	14.505	7.50351
14.51	7.95554	14.51	7.94631
14.515	7.92473	14.515	7.89651
14.52	7.90162	14.52	7.85913
14.525	7.88428	14.525	7.83107
14.53	7.87127	14.53	7.81
14.535	7.86151	14.535	7.79416
14.54	7.85418	14.54	7.78226
14.545	7.84868	14.545	7.7733
14.55	8.2315	14.55	7.3796
14.555	8.13674	14.555	7.46617
14.56	8.06567	14.56	7.53106
14.565	8.01236	14.565	7.5797
14.57	7.97237	14.57	7.61616
14.575	7.94237	14.575	7.64347
14.58	7.91987	14.58	7.66392
14.585	7.90299	14.585	7.67923
14.59	7.89032	14.59	7.69069
14.595	7.88082	14.595	7.69925
14.6	7.87369	14.6	7.70564
14.605	7.48138	14.605	8.09735
14.61	7.56902	14.61	8.00924
14.615	7.63474	14.615	7.94313
14.62	7.68402	14.62	7.89352
14.625	7.72098	14.625	7.85628
14.63	7.7487	14.63	7.82832
14.635	8.15643	14.635	7.42037
14.64	8.08035	14.64	7.49625
14.645	8.02329	14.645	7.55313
14.65	7.98049	14.65	7.59576
14.655	7.94838	14.655	7.62771
14.66	7.9243	14.66	7.65163
14.665	7.90623	14.665	7.66955
14.67	7.89267	14.67	7.68296
14.675	7.8825	14.675	7.69299
14.68	7.87487	14.68	7.70048
14.685	7.86914	14.685	7.70607
14.69	7.86483	14.69	7.71023
14.695	7.8616	14.695	7.71333
14.7	7.85917	14.7	7.71562
14.705	7.85735	14.705	7.71731
14.71	8.48145	14.71	7.09306
14.715	7.70077	14.715	7.8736
14.72	7.73853	14.72	7.83571
14.725	7.76685	14.725	7.80726
14.73	7.78808	14.73	7.78589
14.735	8.42948	14.735	7.14436
14.74	8.28725	14.74	7.28645
14.745	7.55509	14.745	8.01847
14.75	8.25472	14.75	7.3187
14.755	8.15617	14.755	7.41711
14.76	5.79138	14.76	6.45098
14.765	6.29192	14.765	6.75395
14.77	6.6673	14.77	6.98113
14.775	7.18735	14.775	6.91294
14.78	7.33596	14.78	7.10315
14.785	6.82191	14.785	7.87124
14.79	7.05962	14.79	7.82398
14.795	7.86336	14.795	7.16301
14.8	7.60433	14.8	7.52904
14.805	7.88998	14.805	7.32358
14.81	7.62425	14.81	7.64937
14.815	7.66634	14.815	7.65226
14.82	8.32336	14.82	7.02889
14.825	7.56735	14.825	7.81008
14.83	7.62359	14.83	7.77264
14.835	8.29123	14.835	7.11904
14.84	8.16866	14.84	7.25206
14.845	7.45123	14.845	7.97725
14.85	7.53641	14.85	7.89783
14.855	8.22575	14.855	7.21273
14.86	7.49397	14.86	7.94761
14.865	7.56839	14.865	7.87545
14.87	8.24966	14.87	7.19581
14.875	7.75037	14.875	7.69624
14.88	7.51921	14.88	7.92818
14.885	7.58723	14.885	7.86069
14.89	7.87675	14.89	7.57148
14.895	7.61392	14.895	7.83447
14.9	7.65819	14.9	7.79026
14.905	8.31684	14.905	7.13157
14.91	8.18754	14.91	7.26077
14.915	7.46506	14.915	7.98311
14.92	7.54644	14.92	7.90154
14.925	7.60746	14.925	7.84031
14.93	7.6532	14.93	7.79435
14.935	7.68748	14.935	7.75982
14.94	7.71316	14.94	7.73388
14.945	7.7324	14.945	7.71438
14.95	7.74681	14.95	7.6997
14.955	7.75759	14.955	7.68865
14.96	7.76565	14.96	7.68031
14.965	7.77167	14.965	7.67401
14.97	7.77616	14.97	7.66923
14.975	7.77951	14.975	7.6656
14.98	7.78199	14.98	7.66283
14.985	7.78383	14.985	7.6607
14.99	7.78518	14.99	7.65906
14.995	7.78618	14.995	7.65778
15	21.3232	15	20.4191
15.005	21.2495	15.005	20.5274
15.01	21.1985	15.01	20.613
15.015	21.5516	15.015	20.2945
15.02	21.4389	15.02	20.4418
15.025	21.3587	15.025	20.5566
15.03	21.3029	15.03	20.6471
15.035	21.2654	15.035	20.7192
15.04	21.2416	15.04	20.7776
15.045	21.2281	15.045	20.8257
15.05	21.2223	15.05	20.8661
15.055	21.8478	15.055	20.2753
15.06	21.698	15.06	20.4597
15.065	21.5899	15.065	20.6024
15.07	21.5133	15.07	20.7137
15.075	21.4601	15.075	20.8015
15.08	21.4245	15.08	20.8716
15.085	21.4022	15.085	20.9285
15.09	21.7768	15.09	20.5886
15.095	21.6802	15.095	20.7198
15.1	21.6121	15.1	20.8226
15.105	21.5653	15.105	20.9039
15.11	21.5346	15.11	20.9693
15.115	21.5159	15.115	21.0226
15.12	19.8408	15.12	19.4015
15.125	20.2397	15.125	19.8409
15.13	20.5432	15.13	20.1747
15.135	21.4006	15.135	19.8039
15.14	21.8117	15.14	19.7664
15.145	21.7424	15.145	20.1244
15.15	20.0294	15.15	18.7318
15.155	20.3999	15.155	19.3426
15.16	20.682	15.16	19.8049
15.165	19.2325	15.165	18.4905
15.17	20.426	15.17	18.5344
15.175	19.4238	15.175	17.1425
15.18	19.3199	15.18	18.7611
15.185	19.8695	15.185	19.3559
15.19	18.5931	15.19	14.8376
15.195	18.0624	15.195	17.6342
15.2	16.8353	15.2	13.9076
15.205	17.7359	15.205	15.9037
15.21	17.8556	15.21	14.634
15.215	17.4573	15.215	14.1492
15.22	17.5677	15.22	16.6864
15.225	18.1049	15.225	14.8125
15.23	15.7339	15.23	12.8293
15.235	16.3197	15.235	12.2588
15.24	12.9401	15.24	8.96746
15.245	14.7417	15.245	12.076
15.25	14.9115	15.25	12.266
15.255	12.23	15.255	8.53474
15.26	12.7463	15.26	9.7912
15.265	13.123	15.265	10.7229
15.27	12.3551	15.27	9.1202
15.275	13.183	15.275	9.79471
15.28	13.4114	15.28	10.6718
15.285	10.6282	15.285	7.60109
15.29	11.45	15.29	8.97097
15.295	9.11175	15.295	6.26985
15.3	10.5057	15.3	7.67829
15.305	10.6734	15.305	9.59063
15.31	10.3718	15.31	8.09985
15.315	11.1622	15.315	9.24501
15.32	12.3697	15.32	9.46745
15.325	9.31026	15.325	6.9158
15.33	10.068	15.33	8.53136
15.335	11.1052	15.335	9.25204
15.34	8.06135	15.34	6.93065
15.345	8.27067	15.345	5.94798
15.35	9.05723	15.35	7.86094
15.355	7.6995	15.355	4.5594
15.36	9.3811	15.36	9.29529
15.365	4.42919	15.365	2.41294
15.37	5.81738	15.37	5.33358
15.375	7.08355	15.375	7.27638
15.38	6.73831	15.38	6.67485
15.385	7.079	15.385	5.57232
15.39	7.72525	15.39	7.63362
15.395	6.76945	15.395	7.26641
15.4	7.42093	15.4	5.57071
15.405	8.15685	15.405	7.33037
15.41	5.74834	15.41	4.92589
15.415	6.99364	15.415	6.65124
15.42	8.39596	15.42	7.45367
15.425	3.57301	15.425	3.91454
15.43	6.14554	15.43	4.95238
15.435	7.05301	15.435	6.72923
15.44	3.10756	15.44	2.67204
15.445	4.7024	15.445	4.95693
15.45	5.88163	15.45	6.66381
15.455	4.19222	15.455	3.83248
15.46	5.44625	15.46	5.76764
15.465	6.75671	15.465	6.82518
15.47	4.39682	15.47	4.27556
15.475	5.9167	15.475	5.65309
15.48	6.65764	15.48	7.06113
15.485	2.34846	15.485	2.96555
15.49	4.29854	15.49	4.59299
15.495	5.74898	15.495	5.8014
15.5	3.49386	15.5	3.36472
15.505	4.70515	15.505	5.2137
15.51	5.98326	15.51	6.20629
15.515	3.5988	15.515	3.60766
15.52	3.0476	15.52	3.66968
15.525	2.98921	15.525	3.30744
15.53	4.58394	15.53	4.67423
15.535	5.76758	15.535	5.68688
15.54	3.69905	15.54	2.71617
15.545	2.76422	15.545	3.11935
15.55	2.2724	15.55	3.15836
15.555	4.31069	15.555	4.0571
15.56	5.44497	15.56	5.10041
15.565	2.56534	15.565	2.92641
15.57	4.46357	15.57	3.8162
15.575	5.49271	15.575	4.85269
15.58	4.19953	15.58	4.33889
15.585	5.63663	15.585	4.82285
15.59	6.0813	15.59	5.79344
15.595	5.21659	15.595	4.36323
15.6	7.00465	15.6	7.46092
15.605	7.69222	15.605	7.11023
15.61	6.14782	15.61	5.55082
15.615	6.62754	15.615	6.01925
15.62	7.3614	15.62	5.97071
15.625	6.23858	15.625	4.2509
15.63	7.931	15.63	7.03316
15.635	8.3053	15.635	6.68717
15.64	4.23493	15.64	4.09124
15.645	5.09419	15.645	4.80976
15.65	4.06021	15.65	3.67017
15.655	4.92254	15.655	4.45327
15.66	5.94314	15.66	4.64052
15.665	6.70056	15.665	4.76273
15.67	6.48669	15.67	5.61003
15.675	5.80349	15.675	3.41116
15.68	5.53959	15.68	4.78889
15.685	4.67327	15.685	3.13333
15.69	5.27932	15.69	3.91114
15.695	7.77293	15.695	5.75965
15.7	7.59711	15.7	5.8637
15.705	7.45197	15.705	5.92842
15.71	7.3298	15.71	5.96362
15.715	7.6118	15.715	5.58972
15.72	7.42809	15.72	5.67778
15.725	7.66389	15.725	5.34348
15.73	7.83245	15.73	5.07427
15.735	7.32506	15.735	5.47932
15.74	8.83791	15.74	7.19364
15.745	7.02978	15.745	4.7627
15.75	8.59464	15.75	6.62416
15.755	10.1563	15.755	7.63431
15.76	8.89435	15.76	7.49636
15.765	8.70324	15.765	6.61058
15.77	10.2169	15.77	7.59302
15.775	9.30586	15.775	7.0473
15.78	8.60908	15.78	6.62446
15.785	10.1253	15.785	7.57222
15.79	9.21617	15.79	7.00044
15.795	10.5731	15.795	7.83646
15.8	9.54451	15.8	7.18087
15.805	10.4249	15.805	8.34097
15.81	9.42068	15.81	7.54654
15.815	10.7063	15.815	8.21555
15.82	11.2895	15.82	9.10005
15.825	10.0625	15.825	8.0989
15.83	9.1286	15.83	7.3344
15.835	10.3185	15.835	8.17422
15.84	11.3573	15.84	8.65939
15.845	10.477	15.845	7.35363
15.85	10.6997	15.85	8.79483
15.855	11.2494	15.855	9.49469
15.86	11.6625	15.86	10.0204
15.865	10.6948	15.865	8.36317
15.87	11.2389	15.87	9.1538
15.875	9.98237	15.875	8.08218
15.88	10.3047	15.88	9.31708
15.885	10.9292	15.885	9.86218
15.89	11.3984	15.89	10.2718
15.895	10.0857	15.895	8.91437
15.9	10.9914	15.9	9.30943
15.905	11.43	15.905	9.8479
15.91	10.0944	15.91	8.58711
15.915	9.97049	15.915	10.0671
15.92	9.36361	15.92	8.36168
15.925	10.1782	15.925	9.11613
15.93	10.403	15.93	10.0696
15.935	10.9542	15.935	10.4036
15.94	11.9939	15.94	10.0294
15.945	10.0987	15.945	9.09421
15.95	10.7109	15.95	9.66257
15.955	10.7838	15.955	10.4765
15.96	9.16877	15.96	9.42733
15.965	9.60401	15.965	10.2971
15.97	8.49922	15.97	9.05128
15.975	9.46269	15.975	9.62801
15.98	9.79904	15.98	10.4482
15.985	10.4339	15.985	10.6821
15.99	10.5238	15.99	11.2451
15.995	9.54687	15.995	9.38229
16	10.2244	16	9.8781
16.005	10.3463	16.005	10.6375
16.01	10.4333	16.01	11.2129
16.015	8.82873	16.015	9.98467
16.02	9.89728	16.02	10.0946
16.025	10.458	16.025	10.4192
16.03	10.4922	16.03	11.0501
16.035	9.23499	16.035	9.4767
16.04	9.55669	16.04	10.3351
16.045	10.0321	16.045	10.746
16.05	8.47736	16.05	9.63591
16.055	9.34472	16.055	10.0729
16.06	9.60892	16.06	10.7883
16.065	10.1896	16.065	10.9435
16.07	10.2387	16.07	11.4474
16.075	8.60577	16.075	10.1656
16.08	10.0399	16.08	9.84838
16.085	10.1059	16.085	10.6212
16.09	8.48549	16.09	9.54114
16.095	9.30356	16.095	10.0006
16.1	9.76929	16.1	10.4942
16.105	9.87269	16.105	11.1114
16.11	8.6673	16.11	9.52763
16.115	9.02778	16.115	10.3781
16.12	9.29364	16.12	11.0216
16.125	8.21007	16.125	9.45752
16.13	9.28737	16.13	9.69729
16.135	9.46756	16.135	10.506
16.14	9.98511	16.14	10.7311
16.145	8.70844	16.145	9.23512
16.15	9.40237	16.15	9.76448
16.155	9.5364	16.155	10.5489
16.16	10.2579	16.16	10.5174
16.165	8.89269	16.165	9.07017
16.17	9.52023	16.17	9.63614
16.175	9.60445	16.175	10.448
16.18	9.66305	16.18	11.0625
16.185	8.42399	16.185	9.47655
16.19	9.14609	16.19	9.93843
16.195	10.3136	16.195	9.6598
16.2	10.5665	16.2	10.0746
16.205	8.70436	16.205	9.10761
16.21	8.95403	16.21	10.0388
16.215	7.85822	16.215	8.69036
16.22	9.31321	16.22	8.70485
16.225	9.78163	16.225	9.3394
16.23	10.1334	16.23	9.81572
16.235	8.73232	16.235	8.50796
16.24	8.94589	16.24	9.56537
16.245	9.48837	16.245	9.97695
16.25	10.5212	16.25	9.66055
16.255	10.6729	16.255	10.0469
16.26	9.1218	16.26	8.67165
16.265	9.60977	16.265	9.29148
16.27	9.97617	16.27	9.75671
16.275	10.2514	16.275	10.106
16.28	8.4059	16.28	9.08989
16.285	9.05495	16.285	9.59719
16.29	9.54214	16.29	9.978
16.295	10.5334	16.295	9.63848
16.3	8.98861	16.3	8.34206
16.305	9.48129	16.305	9.02097
16.31	9.85119	16.31	9.53048
16.315	10.129	16.315	9.91294
16.32	10.3377	16.32	10.2001
16.325	10.4947	16.325	10.4158
16.33	10.6128	16.33	10.5779
16.335	9.03636	16.335	9.03443
16.34	9.50529	16.34	9.52802
16.345	9.85736	16.345	9.89852
16.35	10.7473	16.35	9.55122
16.355	10.7918	16.355	9.91432
16.36	9.16016	16.36	8.52156
16.365	9.58768	16.365	9.12818
16.37	9.90867	16.37	9.58342
16.375	10.1498	16.375	9.92515
16.38	8.66553	16.38	8.51633
16.385	9.20359	16.385	9.11088
16.39	9.60746	16.39	9.55706
16.395	9.9107	16.395	9.89197
16.4	10.1385	16.4	10.1434
16.405	11.322	16.405	9.31984
16.41	9.53952	16.41	8.04218
16.415	9.85383	16.415	8.73507
16.42	10.0899	16.42	9.25498
16.425	10.2672	16.425	9.64517
16.43	10.4006	16.43	9.93806
16.435	10.5009	16.435	10.158
16.44	8.91102	16.44	8.65776
16.445	9.75677	16.445	8.79678
16.45	10.0095	16.45	9.28314
16.455	9.15944	16.455	7.35726
16.46	9.54978	16.46	8.18723
16.465	9.84282	16.465	8.80991
16.47	10.0629	16.47	9.27714
16.475	10.2282	16.475	9.62776
16.48	10.3524	16.48	9.89094
16.485	8.78052	16.485	8.42314
16.49	9.25273	16.49	8.97337
16.495	9.60714	16.495	9.38624
16.5	9.87321	16.5	9.69608
16.505	10.073	16.505	9.92865
16.51	10.2231	16.51	10.1033
16.515	10.336	16.515	10.2344
16.52	10.8078	16.52	9.94603
16.525	10.3931	16.525	10.4987
16.53	9.18578	16.53	8.47925
16.535	9.16259	16.535	9.38451
16.54	10.1528	16.54	9.05629
16.545	10.2724	16.545	9.43356
16.55	10.3624	16.55	9.71668
16.555	10.43	16.555	9.9292
16.56	10.4811	16.56	10.0888
16.565	10.5196	16.565	10.2086
16.57	10.9356	16.57	9.91169
16.575	10.866	16.575	10.0711
16.58	10.8141	16.58	10.1907
16.585	9.10997	16.585	8.61529
16.59	9.09605	16.59	9.47169
16.595	9.46769	16.595	9.73227
16.6	9.74664	16.6	9.92786
16.605	9.95607	16.605	10.0747
16.61	10.1134	16.61	10.185
16.615	10.2316	16.615	10.2679
16.62	10.3204	16.62	10.3302
16.625	10.3873	16.625	10.377
16.63	10.4377	16.63	10.4123
16.635	8.81025	16.635	8.77357
16.64	9.2408	16.64	9.19552
16.645	9.5639	16.645	9.51212
16.65	10.4319	16.65	9.12422
16.655	10.4599	16.655	9.45669
16.66	10.481	16.66	9.70618
16.665	10.4971	16.665	9.89343
16.67	10.5093	16.67	10.034
16.675	8.85332	16.675	8.47416
16.68	9.26239	16.68	8.95528
16.685	9.18242	16.685	9.70318
16.69	9.5045	16.69	9.88236
16.695	9.74624	16.695	10.0168
16.7	9.92772	16.7	10.1178
16.705	10.064	16.705	10.1937
16.71	10.1664	16.71	10.2507
16.715	10.2434	16.715	10.2935
16.72	10.3013	16.72	10.3258
16.725	8.67956	16.725	8.6847
16.73	9.11428	16.73	9.10487
16.735	9.44049	16.735	9.42009
16.74	9.68531	16.74	9.65659
16.745	9.48214	16.745	10.221
16.75	9.71179	16.75	10.2626
16.755	9.88419	16.755	10.2938
16.76	10.0137	16.76	10.3173
16.765	10.1109	16.765	10.3351
16.77	10.184	16.77	10.3485
16.775	10.239	16.775	10.3586
16.78	10.2804	16.78	10.3663
16.785	10.3116	16.785	10.3722
16.79	10.3352	16.79	10.3767
16.795	10.3531	16.795	10.3801
16.8	10.3666	16.8	10.3828
16.805	8.71154	16.805	8.71953
16.81	9.12127	16.81	9.12304
16.815	9.42872	16.815	9.42574
16.82	9.65944	16.82	9.65283
16.825	9.83263	16.825	9.82323
16.83	9.96266	16.83	9.9511
16.835	10.0603	16.835	10.0471
16.84	10.1337	16.84	10.1191
16.845	10.1889	16.845	10.1733
16.85	10.2305	16.85	10.2139
16.855	10.2618	16.855	10.2445
16.86	10.2854	16.86	10.2675
16.865	10.3032	16.865	10.2848
16.87	10.3168	16.87	10.2979
16.875	10.3271	16.875	10.3077
16.88	10.3349	16.88	10.3152
16.885	10.341	16.885	10.3209
16.89	8.68024	16.89	8.65985
16.895	9.08572	16.895	9.065
16.9	9.38995	16.9	9.36892
16.905	9.61825	16.905	9.59691
16.91	9.7896	16.91	9.76796
16.915	9.91823	16.915	9.8963
16.92	10.0148	16.92	9.99261
16.925	10.4744	16.925	9.67795
16.93	10.4373	16.93	9.82388
16.935	10.4096	16.935	9.93338
16.94	10.3889	16.94	10.0156
16.945	8.70815	16.945	8.41184
16.95	9.09858	16.95	8.85999
16.955	9.3915	16.955	9.19614
16.96	9.99825	16.96	9.06133
16.965	10.0715	16.965	9.34213
16.97	10.1266	16.97	9.55277
16.975	10.168	16.975	9.71078
16.98	10.1992	16.98	9.82932
16.985	10.2227	16.985	9.91827
16.99	10.2404	16.99	9.98501
16.995	10.2538	16.995	10.0351
17	10.264	17	10.0727
17.005	10.2717	17.005	10.1009
17.01	10.2776	17.01	10.1222
17.015	10.669	17.015	9.75116
17.02	10.5809	17.02	9.85481
17.025	10.5149	17.025	9.93258
17.03	10.4655	17.03	9.99094
17.035	10.4285	17.035	10.0348
17.04	10.4009	17.04	10.0676
17.045	10.3803	17.045	10.0923
17.05	10.365	17.05	10.1109
17.055	10.3536	17.055	10.1249
17.06	10.3451	17.06	10.1354
17.065	10.7258	17.065	9.75634
17.07	10.0041	17.07	10.4794
17.075	10.0862	17.075	10.3985
17.08	10.1479	17.08	10.3379
17.085	10.1943	17.085	10.2924
17.09	10.2292	17.09	10.2584
17.095	10.2554	17.095	10.2329
17.1	10.2752	17.1	10.2138
17.105	10.6771	17.105	9.81258
17.11	10.5968	17.11	9.89356
17.115	10.5366	17.115	9.95434
17.12	10.4916	17.12	9.99995
17.125	8.79259	17.125	8.3688
17.13	9.16928	17.13	8.79635
17.135	9.45189	17.135	9.11703
17.14	9.66393	17.14	9.35755
17.145	9.82304	17.145	9.53796
17.15	9.94246	17.15	9.67329
17.155	10.4191	17.155	9.38786
17.16	10.3947	17.16	9.55566
17.165	9.75108	17.165	10.307
17.17	9.89171	17.17	10.2473
17.175	9.99726	17.175	10.2025
17.18	10.0765	17.18	10.1689
17.185	10.136	17.185	10.1438
17.19	10.1808	17.19	10.1249
17.195	10.2144	17.195	10.1108
17.2	10.2397	17.2	10.1002
17.205	10.2587	17.205	10.0923
17.21	10.2731	17.21	10.0864
17.215	10.284	17.215	10.082
17.22	10.2922	17.22	10.0787
17.225	10.2985	17.225	10.0762
17.23	10.3033	17.23	10.0744
17.235	10.307	17.235	10.073
17.24	10.6967	17.24	9.68509
17.245	10.6073	17.245	9.77602
17.25	10.5403	17.25	9.84424
17.255	10.4901	17.255	9.89541
17.26	10.4526	17.26	9.93382
17.265	10.4245	17.265	9.96263
17.27	10.4036	17.27	9.98427
17.275	10.3879	17.275	10.0005
17.28	10.3763	17.28	10.0127
17.285	9.74213	17.285	10.6474
17.29	9.88989	17.29	10.5001
17.295	10.0008	17.295	10.3897
17.3	10.084	17.3	10.3069
17.305	10.1466	17.305	10.2448
17.31	10.1936	17.31	10.1982
17.315	10.2289	17.315	10.1633
17.32	10.2554	17.32	10.1372
17.325	10.2755	17.325	10.1176
17.33	10.2905	17.33	10.1029
17.335	10.6889	17.335	9.70499
17.34	10.2189	17.34	10.1754
17.345	10.6353	17.345	9.75936
17.35	10.5659	17.35	9.82924
17.355	10.5139	17.355	9.88167
17.36	10.4749	17.36	9.92101
17.365	10.4458	17.365	9.95053
17.37	10.4241	17.37	9.97269
17.375	10.4078	17.375	9.98933
17.38	10.3958	17.38	10.0018
17.385	10.3868	17.385	10.0112
17.39	9.75463	17.39	10.6438
17.395	9.90388	17.395	10.4949
17.4	10.0159	17.4	10.3833
17.405	10.1	17.405	10.2996
17.41	8.49777	17.41	8.57148
17.415	8.94704	17.415	8.92626
17.42	9.28406	17.42	9.19235
17.425	9.53689	17.425	9.39192
17.43	9.72658	17.43	9.5416
17.435	9.8689	17.435	9.65386
17.44	9.97571	17.44	9.73805
17.445	10.0559	17.445	9.8012
17.45	10.1161	17.45	9.84856
17.455	10.5482	17.455	9.49713
17.46	10.4905	17.46	9.61543
17.465	9.82185	17.465	10.3296
17.47	9.94367	17.47	10.242
17.475	10.0351	17.475	10.1763
17.48	10.1037	17.48	10.127
17.485	10.1553	17.485	10.0901
17.49	10.194	17.49	10.0623
17.495	10.2231	17.495	10.0416
17.5	10.245	17.5	10.026
17.505	10.2615	17.505	10.0143
17.51	10.2739	17.51	10.0055
17.515	10.2832	17.515	9.99894
17.52	10.2903	17.52	9.99401
17.525	10.2957	17.525	9.99032
17.53	10.2998	17.53	9.98755
17.535	10.303	17.535	9.98548
17.54	10.3054	17.54	9.98392
17.545	10.3073	17.545	9.98276
17.55	9.68324	17.55	10.6074
17.555	9.83856	17.555	10.4526
17.56	9.95512	17.56	10.3364
17.565	10.0426	17.565	10.2494
17.57	10.4952	17.57	9.79712
17.575	10.4529	17.575	9.8398
17.58	10.4212	17.58	9.87181
17.585	10.3975	17.585	9.89582
17.59	10.3797	17.59	9.91383
17.595	10.3665	17.595	9.92734
17.6	10.3566	17.6	9.93748
17.605	10.3493	17.605	9.94508
17.61	10.3439	17.61	9.95079
17.615	10.3399	17.615	9.95507
17.62	10.3369	17.62	9.95828
17.625	10.3347	17.625	9.9607
17.63	9.70772	17.63	10.588
17.635	9.86077	17.635	10.4352
17.64	10.3626	17.64	9.93365
17.645	10.3571	17.645	9.93936
17.65	10.3531	17.65	9.94365
17.655	10.3501	17.655	9.94687
17.66	10.348	17.66	9.94929
17.665	10.3464	17.665	9.9511
17.67	10.7322	17.67	9.56552
17.675	10.6398	17.675	9.65821
17.68	10.5705	17.68	9.72773
17.685	10.5187	17.685	9.77987
17.69	10.4798	17.69	9.81898
17.695	10.4507	17.695	9.84831
17.7	9.8035	17.7	10.4958
17.705	9.94141	17.705	10.3581
17.71	10.0449	17.71	10.2549
17.715	10.1226	17.715	10.1775
17.72	10.1809	17.72	10.1194
17.725	10.6116	17.725	9.68894
17.73	10.5529	17.73	9.74794
17.735	10.5089	17.735	9.7922
17.74	10.4759	17.74	9.82539
17.745	10.4513	17.745	9.8503
17.75	10.4329	17.75	9.86898
17.755	10.4191	17.755	9.88299
17.76	10.4089	17.76	9.89351
17.765	10.4012	17.765	9.9014
17.77	10.3955	17.77	9.90733
17.775	10.7783	17.775	9.52483
17.78	10.2966	17.78	10.0068
17.785	10.7042	17.785	9.59942
17.79	10.6281	17.79	9.67577
17.795	10.5711	17.795	9.73305
17.8	9.90292	17.8	10.4015
17.805	10.6506	17.805	9.65407
17.81	9.96266	17.81	10.3423
17.815	8.40464	17.815	8.56974
17.82	8.88706	17.82	8.89123
17.825	9.24891	17.825	9.13234
17.83	9.52034	17.83	9.31315
17.835	9.72395	17.835	9.44875
17.84	9.8767	17.84	9.55043
17.845	9.99129	17.845	9.62668
17.85	10.0773	17.85	9.68386
17.855	10.1418	17.855	9.72672
17.86	10.1903	17.86	9.75886
17.865	10.2266	17.865	9.78295
17.87	10.6409	17.87	9.41406
17.875	10.5698	17.875	9.51924
17.88	10.5164	17.88	9.59811
17.885	10.4765	17.885	9.65725
17.89	10.4466	17.89	9.70159
17.895	10.4242	17.895	9.73483
17.9	10.4074	17.9	9.75975
17.905	10.3949	17.905	9.77843
17.91	9.76005	17.91	10.4179
17.915	9.90723	17.915	10.2742
17.92	10.0177	17.92	10.1664
17.925	10.1005	17.925	10.0856
17.93	10.1627	17.93	10.025
17.935	10.2094	17.935	9.97946
17.94	10.2444	17.94	9.94533
17.945	10.2707	17.945	9.91972
17.95	10.2905	17.95	9.90049
17.955	10.3054	17.955	9.88606
17.96	10.3166	17.96	9.87523
17.965	10.325	17.965	9.86709
17.97	10.3314	17.97	9.86097
17.975	10.3362	17.975	9.85637
17.98	10.3398	17.98	9.85291
17.985	10.3426	17.985	9.8503
17.99	10.3447	17.99	9.84833
17.995	10.3463	17.995	9.84684
18	10.3476	18	9.84571
18.005	10.3486	18.005	9.84485
18.01	10.3494	18.01	9.84419
18.015	10.35	18.015	9.84368
18.02	10.3505	18.02	9.84329
18.025	10.3509	18.025	9.84298
18.03	10.3512	18.03	9.84274
18.035	9.9646	18.035	10.2295
18.04	9.43104	18.04	10.7632
18.045	11.9451	18.045	11.58
18.05	11.5565	18.05	11.1651
18.055	10.6396	18.055	11.4794
18.06	10.5753	18.06	11.0918
18.065	10.5271	18.065	10.8011
18.07	10.491	18.07	10.5831
18.075	10.464	18.075	10.4197
18.08	10.4438	18.08	10.2971
18.085	10.4287	18.085	10.2051
18.09	10.4174	18.09	10.1362
18.095	10.409	18.095	10.0844
18.1	10.4028	18.1	10.0457
18.105	10.3982	18.105	10.0166
18.11	10.3948	18.11	9.99481
18.115	10.3923	18.115	9.97847
18.12	10.3905	18.12	9.96622
18.125	10.3892	18.125	9.95704
18.13	10.0013	18.13	10.3371
18.135	10.0923	18.135	10.2403
18.14	10.1606	18.14	10.1677
18.145	10.2119	18.145	10.1133
18.15	10.2504	18.15	10.0724
18.155	10.2794	18.155	10.0418
18.16	10.3012	18.16	10.0189
18.165	10.3176	18.165	10.0017
18.17	8.66451	18.17	8.32339
18.175	9.07565	18.175	8.71555
18.18	9.38404	18.18	9.00966
18.185	9.61537	18.185	9.23023
18.19	9.78891	18.19	9.39565
18.195	9.9191	18.195	9.5197
18.2	10.0168	18.2	9.61273
18.205	10.0901	18.205	9.68248
18.21	10.1451	18.21	9.73479
18.215	10.1864	18.215	9.77401
18.22	10.2174	18.22	9.80341
18.225	10.2407	18.225	9.82545
18.23	9.87124	18.23	10.2289
18.235	10.363	18.235	9.76269
18.24	9.96307	18.24	10.1818
18.245	10.045	18.245	10.1143
18.25	10.1065	18.25	10.0636
18.255	10.1527	18.255	10.0256
18.26	10.1873	18.26	9.99711
18.265	10.2133	18.265	9.97572
18.27	10.2329	18.27	9.95966
18.275	10.2476	18.275	9.9476
18.28	10.2587	18.28	9.93854
18.285	10.267	18.285	9.93174
18.29	10.2733	18.29	9.92663
18.295	10.2781	18.295	9.92278
18.3	10.2817	18.3	9.91988
18.305	10.2844	18.305	9.9177
18.31	10.2865	18.31	9.91605
18.315	10.2881	18.315	9.9148
18.32	10.2893	18.32	9.91385
18.325	10.2903	18.325	9.91313
18.33	10.2911	18.33	9.91257
18.335	9.90474	18.335	10.2991
18.34	9.99689	18.34	10.2071
18.345	10.066	18.345	10.1381
18.35	10.1179	18.35	10.0863
18.355	10.1569	18.355	10.0475
18.36	10.1862	18.36	10.0184
18.365	10.2081	18.365	9.9965
18.37	10.2247	18.37	9.98009
18.375	10.2371	18.375	9.96777
18.38	10.2465	18.38	9.95852
18.385	10.2535	18.385	9.95157
18.39	10.2588	18.39	9.94635
18.395	10.2629	18.395	9.94242
18.4	9.879	18.4	10.3264
18.405	9.97299	18.405	10.2325
18.41	10.0435	18.41	10.1621
18.415	10.0965	18.415	10.1093
18.42	10.1362	18.42	10.0696
18.425	10.166	18.425	10.0399
18.43	10.1884	18.43	10.0176
18.435	10.2053	18.435	10.0008
18.44	10.218	18.44	9.98825
18.445	10.2275	18.445	9.97881
18.45	10.2347	18.45	9.97171
18.455	10.2401	18.455	9.96638
18.46	10.2443	18.46	9.96237
18.465	10.2474	18.465	9.95935
18.47	9.86281	18.47	10.344
18.475	9.95629	18.475	10.2507
18.48	10.0264	18.48	10.1806
18.485	10.0791	18.485	10.1281
18.49	10.1186	18.49	10.0886
18.495	10.1483	18.495	10.0591
18.5	10.1706	18.5	10.0369
18.505	10.1873	18.505	10.0202
18.51	10.1999	18.51	10.0077
18.515	10.2094	18.515	9.99832
18.52	10.2166	18.52	9.99127
18.525	9.83505	18.525	10.3729
18.53	9.9308	18.53	10.2773
18.535	10.0026	18.535	10.2055
18.54	10.0566	18.54	10.1517
18.545	10.097	18.545	10.1113
18.55	10.1274	18.55	10.081
18.555	10.1503	18.555	10.0583
18.56	10.1674	18.56	10.0412
18.565	10.1803	18.565	10.0284
18.57	10.1901	18.57	10.0188
18.575	10.1974	18.575	10.0116
18.58	10.2029	18.58	10.0062
18.585	10.2071	18.585	10.0021
18.59	10.2103	18.59	9.999
18.595	10.2127	18.595	9.99668
18.6	10.84	18.6	9.36945
18.605	10.6873	18.605	9.52229
18.61	10.5728	18.61	9.6369
18.615	12.1523	18.615	11.3882
18.62	11.6862	18.62	11.0509
18.625	10.9497	18.625	11.1848
18.63	11.1661	18.63	10.5164
18.635	10.5597	18.635	10.784
18.64	10.8738	18.64	10.2158
18.645	10.3406	18.645	10.5585
18.65	10.3226	18.65	10.4337
18.655	10.3092	18.655	10.3401
18.66	10.2992	18.66	10.2699
18.665	10.2918	18.665	10.2172
18.67	10.2862	18.67	10.1778
18.675	10.2821	18.675	10.1482
18.68	10.2791	18.68	10.126
18.685	10.2769	18.685	10.1093
18.69	10.2753	18.69	10.0968
18.695	10.2742	18.695	10.0875
18.7	10.2734	18.7	10.0805
18.705	10.2729	18.705	10.0752
18.71	10.2725	18.71	10.0713
18.715	10.2723	18.715	10.0684
18.72	10.2722	18.72	10.0662
18.725	10.2722	18.725	10.0645
18.73	10.2722	18.73	10.0633
18.735	9.88539	18.735	10.4493
18.74	9.97717	18.74	10.357
18.745	10.0461	18.745	10.2878
18.75	10.0978	18.75	10.2358
18.755	10.1366	18.755	10.1969
18.76	10.1658	18.76	10.1677
18.765	10.1878	18.765	10.1458
18.77	10.2043	18.77	10.1294
18.775	10.2168	18.775	10.1171
18.78	10.2262	18.78	10.1079
18.785	10.2333	18.785	10.101
18.79	10.2387	18.79	10.0958
18.795	10.2428	18.795	10.0919
18.8	10.2459	18.8	10.089
18.805	10.2483	18.805	10.0869
18.81	10.2502	18.81	10.0852
18.815	10.2516	18.815	10.084
18.82	10.2528	18.82	10.0831
18.825	9.86672	18.825	10.4694
18.83	9.95912	18.83	10.3773
18.835	10.0285	18.835	10.3081
18.84	8.41516	18.84	8.59093
18.845	8.8561	18.845	8.9539
18.85	9.18685	18.85	9.22611
18.855	9.43494	18.855	9.43025
18.86	10.2465	18.86	8.95787
18.865	10.232	18.865	9.22684
18.87	10.2211	18.87	9.42855
18.875	10.213	18.875	9.57983
18.88	10.207	18.88	9.69327
18.885	10.2025	18.885	9.77833
18.89	10.1991	18.89	9.84212
18.895	10.1967	18.895	9.88995
18.9	10.1949	18.9	9.9258
18.905	10.1936	18.905	9.95268
18.91	10.1926	18.91	9.97283
18.915	10.192	18.915	9.98792
18.92	10.1915	18.92	9.99923
18.925	10.1912	18.925	10.0077
18.93	10.191	18.93	10.014
18.935	10.1909	18.935	10.0188
18.94	10.1908	18.94	10.0223
18.945	10.1909	18.945	10.025
18.95	10.1909	18.95	10.0269
18.955	10.191	18.955	10.0284
18.96	10.1911	18.96	10.0295
18.965	10.1912	18.965	10.0303
18.97	10.1913	18.97	10.0309
18.975	10.1914	18.975	10.0313
18.98	10.1916	18.98	10.0316
18.985	10.1917	18.985	10.0318
18.99	10.1919	18.99	10.0319
18.995	10.192	18.995	10.032
19	10.1922	19	10.0321
19.005	10.1923	19.005	10.0321
19.01	10.1925	19.01	10.0321
19.015	10.1926	19.015	10.0321
19.02	10.1928	19.02	10.0321
19.025	10.1929	19.025	10.0321
19.03	10.1931	19.03	10.0321
19.035	10.1932	19.035	10.032
19.04	10.1934	19.04	10.032
19.045	10.1935	19.045	10.0319
19.05	10.1937	19.05	10.0319
19.055	10.1939	19.055	10.0318
19.06	10.194	19.06	10.0318
19.065	10.1942	19.065	10.0317
19.07	10.1943	19.07	10.0317
19.075	10.1945	19.075	10.0316
19.08	10.1946	19.08	10.0316
19.085	10.1948	19.085	10.0315
19.09	10.195	19.09	10.0315
19.095	10.1951	19.095	10.0314
19.1	10.1953	19.1	10.0314
19.105	10.1954	19.105	10.0313
19.11	9.80864	19.11	10.4182
19.115	10.2874	19.115	9.93953
19.12	10.2646	19.12	9.96239
19.125	9.86067	19.125	10.3665
19.13	9.93959	19.13	10.2876
19.135	9.99882	19.135	10.2285
19.14	10.0433	19.14	10.1842
19.145	10.0767	19.145	10.1509
19.15	10.1017	19.15	10.1259
19.155	10.1206	19.155	10.1072
19.16	10.1348	19.16	10.0931
19.165	10.1454	19.165	10.0825
19.17	10.1535	19.17	10.0746
19.175	10.1596	19.175	10.0686
19.18	10.1641	19.18	10.0641
19.185	10.1676	19.185	10.0607
19.19	10.1703	19.19	10.0582
19.195	10.1723	19.195	10.0563
19.2	10.1739	19.2	10.0548
19.205	10.1751	19.205	10.0537
19.21	10.176	19.21	10.0528
19.215	10.1768	19.215	10.0522
19.22	10.1774	19.22	10.0517
19.225	10.1779	19.225	10.0513
19.23	10.1783	19.23	10.051
19.235	10.1786	19.235	10.0508
19.24	10.1789	19.24	10.0506
19.245	10.1792	19.245	10.0504
19.25	10.1794	19.25	10.0503
19.255	10.1796	19.255	10.0502
19.26	10.1798	19.26	10.0501
19.265	10.18	19.265	10.05
19.27	10.1802	19.27	10.0499
19.275	10.1804	19.275	10.0498
19.28	11.8459	19.28	11.7152
19.285	11.8312	19.285	10.9263
19.29	11.4384	19.29	10.7166
19.295	11.1438	19.295	10.5592
19.3	10.923	19.3	10.4413
19.305	10.7574	19.305	10.3528
19.31	10.6332	19.31	10.2864
19.315	10.5402	19.315	10.2367
19.32	10.4704	19.32	10.1994
19.325	10.4182	19.325	10.1714
19.33	10.3791	19.33	10.1504
19.335	10.3498	19.335	10.1347
19.34	10.3279	19.34	10.1229
19.345	10.3115	19.345	10.114
19.35	10.2993	19.35	10.1074
19.355	10.2902	19.355	10.1025
19.36	10.2835	19.36	10.0987
19.365	10.2784	19.365	10.096
19.37	10.2747	19.37	10.0939
19.375	10.272	19.375	10.0923
19.38	10.27	19.38	10.0912
19.385	10.2686	19.385	10.0903
19.39	10.2676	19.39	10.0897
19.395	10.2669	19.395	10.0892
19.4	10.2664	19.4	10.0888
19.405	10.2661	19.405	10.0886
19.41	10.266	19.41	10.0884
19.415	10.2659	19.415	10.0882
19.42	10.2659	19.42	10.0882
19.425	10.266	19.425	10.0881
19.43	10.2661	19.43	10.088
19.435	10.2662	19.435	10.088
19.44	10.2664	19.44	10.088
19.445	10.2666	19.445	10.088
19.45	9.64128	19.45	10.7135
19.455	8.13025	19.455	8.89392
19.46	9.27339	19.46	8.55466
19.465	8.88203	19.465	9.54895
19.47	9.8373	19.47	9.0459
19.475	9.30504	19.475	9.91735
19.48	9.52915	19.48	9.94766
19.485	9.69728	19.485	9.97038
19.49	9.82341	19.49	9.9874
19.495	9.91805	19.495	10.0002
19.5	9.98906	19.5	10.0097
19.505	10.4293	19.505	9.62992
19.51	9.99072	19.51	10.1139
19.515	10.0437	19.515	10.095
19.52	10.4704	19.52	9.69381
19.525	10.0216	19.525	10.1618
19.53	10.4539	19.53	9.74389
19.535	10.3963	19.535	9.81234
19.54	10.3532	19.54	9.86367
19.545	10.3208	19.545	9.90215
19.55	10.2966	19.55	9.931
19.555	10.2785	19.555	9.95262
19.56	10.2649	19.56	9.96882
19.565	10.2548	19.565	9.98097
19.57	10.2472	19.57	9.99006
19.575	10.2416	19.575	9.99687
19.58	10.2374	19.58	10.002
19.585	10.2343	19.585	10.0058
19.59	10.232	19.59	10.0086
19.595	10.2304	19.595	10.0107
19.6	10.2292	19.6	10.0123
19.605	10.2283	19.605	10.0135
19.61	10.2277	19.61	10.0143
19.615	10.2272	19.615	10.015
19.62	10.2269	19.62	10.0154
19.625	10.2268	19.625	10.0158
19.63	10.2267	19.63	10.016
19.635	10.2267	19.635	10.0162
19.64	10.2267	19.64	10.0163
19.645	10.2267	19.645	10.0164
19.65	10.2268	19.65	10.0164
19.655	10.2269	19.655	10.0164
19.66	9.60152	19.66	10.6419
19.665	9.7558	19.665	10.4877
19.67	9.87155	19.67	10.3721
19.675	9.9584	19.675	10.2853
19.68	10.0236	19.68	10.2203
19.685	10.0725	19.685	10.1715
19.69	10.1092	19.69	10.1348
19.695	10.1368	19.695	10.1074
19.7	10.1575	19.7	10.0867
19.705	10.1731	19.705	10.0713
19.71	10.1848	19.71	10.0596
19.715	10.1937	19.715	10.0509
19.72	10.2003	19.72	10.0444
19.725	10.2053	19.725	10.0394
19.73	10.2092	19.73	10.0357
19.735	10.212	19.735	10.0329
19.74	10.2143	19.74	10.0308
19.745	10.216	19.745	10.0292
19.75	10.2173	19.75	10.028
19.755	10.2183	19.755	10.0271
19.76	10.2191	19.76	10.0264
19.765	10.2197	19.765	10.0259
19.77	10.2202	19.77	10.0255
19.775	10.2207	19.775	10.0251
19.78	10.221	19.78	10.0249
19.785	10.2213	19.785	10.0247
19.79	10.2216	19.79	10.0245
19.795	10.2218	19.795	10.0244
19.8	10.222	19.8	10.0243
19.805	10.2222	19.805	10.0242
19.81	9.59693	19.81	10.6496
19.815	10.3768	19.815	9.86987
19.82	9.7129	19.82	10.5338
19.825	9.83832	19.825	10.4085
19.83	9.93242	19.83	10.3145
19.835	10.39	19.835	9.85705
19.84	9.96437	19.84	10.2828
19.845	10.414	19.845	9.83321
19.85	10.3694	19.85	9.87791
19.855	10.336	19.855	9.91143
19.86	10.311	19.86	9.93655
19.865	10.2923	19.865	9.95538
19.87	10.2782	19.87	9.9695
19.875	10.2678	19.875	9.98007
19.88	10.26	19.88	9.98799
19.885	10.2541	19.885	9.99392
19.89	10.2498	19.89	9.99836
19.895	10.2466	19.895	10.0017
19.9	10.2442	19.9	10.0041
19.905	10.2425	19.905	10.006
19.91	10.2412	19.91	10.0074
19.915	10.2403	19.915	10.0084
19.92	10.2396	19.92	10.0091
19.925	10.6261	19.925	9.62275
19.93	10.1472	19.93	10.1018
19.935	10.5569	19.935	9.69219
19.94	10.4823	19.94	9.76687
19.945	10.4264	19.945	9.82287
19.95	10.3845	19.95	9.86486
19.955	10.3531	19.955	9.89634
19.96	10.3296	19.96	9.91994
19.965	10.3121	19.965	9.93763
19.97	10.2989	19.97	9.95088
19.975	10.2891	19.975	9.96082
19.98	10.2817	19.98	9.96825
19.985	10.2763	19.985	9.97382
19.99	9.64673	19.99	10.6035
19.995	10.4234	19.995	9.82694
20	-7.40645	20	1.35823
20.005	-7.30202	20.005	1.219
20.01	-7.22847	20.01	1.11064
20.015	-7.17806	20.015	1.02543
20.02	-7.53197	20.02	1.34454
20.025	-7.4203	20.025	1.19806
20.03	-7.34131	20.03	1.08427
20.035	-7.28684	20.035	0.994989
20.04	-7.25075	20.04	0.924092
20.045	-5.1761	20.045	2.14543
20.05	-5.65761	20.05	1.78849
20.055	-6.64898	20.055	2.14235
20.06	-6.77397	20.06	1.78055
20.065	-6.87247	20.065	1.50529
20.07	-5.91116	20.07	3.5858
20.075	-6.22254	20.075	2.86813
20.08	-6.4608	20.08	2.32597
20.085	-4.97882	20.085	3.58086
20.09	-6.14842	20.09	3.49273
20.095	-6.40706	20.095	2.79949
20.1	-4.5534	20.1	3.55413
20.105	-3.53521	20.105	4.51262
20.11	-5.05261	20.11	4.20224
20.115	-3.51972	20.115	4.62079
20.12	-4.40746	20.12	3.66186
20.125	-3.65106	20.125	4.84278
20.13	-2.83248	20.13	5.49777
20.135	-3.87406	20.135	4.33433
20.14	-1.5676	20.14	7.02731
20.145	-0.850362	20.145	6.77856
20.15	-2.34975	20.15	5.31924
20.155	-0.386598	20.155	7.79037
20.16	0.0732125	20.16	7.37529
20.165	-1.61919	20.165	5.79129
20.17	2.25161	20.17	9.4474
20.175	2.10947	20.175	8.65212
20.18	3.44488	20.18	9.96542
20.185	2.66521	20.185	9.45092
20.19	0.812133	20.19	7.02368
20.195	4.1807	20.195	10.4294
20.2	3.27506	20.2	9.83335
20.205	6.85915	20.205	11.8059
20.21	5.73845	20.21	10.5118
20.215	4.91329	20.215	9.54736
20.22	7.78902	20.22	12.0125
20.225	4.85361	20.225	9.04069
20.23	4.31839	20.23	8.46888
20.235	8.03713	20.235	10.6031
20.24	6.77618	20.24	9.67187
20.245	9.32521	20.245	12.1621
20.25	8.19728	20.25	10.4877
20.255	6.98509	20.255	9.62016
20.26	8.53086	20.26	9.86729
20.265	7.29124	20.265	9.17185
20.27	6.76416	20.27	8.26969
20.275	13.9735	20.275	13.3337
20.28	11.5067	20.28	11.8206
20.285	9.67248	20.285	10.6924
20.29	17.2959	20.29	14.1926
20.295	14.5216	20.295	12.1251
20.3	12.4619	20.3	10.5761
20.305	12.9905	20.305	10.6943
20.31	11.3753	20.31	9.51558
20.315	11.8504	20.315	10.2986
20.32	15.4556	20.32	11.0196
20.325	13.7384	20.325	9.40088
20.33	12.0898	20.33	8.57044
20.335	14.5924	20.335	10.8932
20.34	12.807	20.34	9.71726
20.345	11.8762	20.345	8.45018
20.35	13.2569	20.35	8.77512
20.355	13.5646	20.355	9.79897
20.36	12.5528	20.36	8.53097
20.365	17.9776	20.365	11.4122
20.37	15.9744	20.37	9.76302
20.375	14.1118	20.375	8.91006
20.38	15.1756	20.38	9.16393
20.385	13.9674	20.385	8.08235
20.39	12.701	20.39	7.65517
20.395	18.9423	20.395	10.1599
20.4	16.9285	20.4	8.85175
20.405	21.602	20.405	11.7032
20.41	19.0357	20.41	10.0319
20.415	16.751	20.415	9.16271
20.42	19.7895	20.42	10.4446
20.425	17.4014	20.425	9.49363
20.43	15.6323	20.43	8.78287
20.435	19.206	20.435	10.0353
20.44	18.7444	20.44	10.8682
20.445	17.3949	20.445	9.21904
20.45	18.2208	20.45	9.49954
20.455	16.4477	20.455	8.82538
20.46	14.753	20.46	8.70935
20.465	20.6685	20.465	11.453
20.47	19.0313	20.47	9.70415
20.475	24.3718	20.475	11.8415
20.48	21.2961	20.48	10.6454
20.485	19.2502	20.485	9.51258
20.49	20.8275	20.49	12.2381
20.495	19.3566	20.495	10.3578
20.5	16.6401	20.5	10.5863
20.505	22.6514	20.505	12.7268
20.51	20.4579	20.51	11.1543
20.515	18.207	20.515	10.6063
20.52	23.7959	20.52	12.9363
20.525	20.5623	20.525	12.2295
20.53	17.5946	20.53	8.93688
20.535	22.8068	20.535	12.3495
20.54	19.7655	20.54	11.98
20.545	18.5096	20.545	10.7038
20.55	21.1569	20.55	12.8451
20.555	19.2322	20.555	11.7839
20.56	15.5127	20.56	9.95931
20.565	19.207	20.565	12.0966
20.57	17.2007	20.57	11.8993
20.575	14.6688	20.575	9.47405
20.58	16.3398	20.58	10.7442
20.585	15.3287	20.585	10.6858
20.59	14.9674	20.59	10.2715
20.595	15.8414	20.595	12.173
20.6	13.7182	20.6	9.77195
20.605	13.4047	20.605	10.0205
20.61	13.6568	20.61	9.74646
20.615	13.3731	20.615	10.0403
20.62	12.7834	20.62	10.6643
20.625	13.2103	20.625	10.29
20.63	12.6707	20.63	10.8957
20.635	10.9927	20.635	9.31937
20.64	11.4854	20.64	9.71457
20.645	11.3771	20.645	10.5156
20.65	10.0226	20.65	9.08574
20.655	10.371	20.655	9.9778
20.66	10.9234	20.66	10.3827
20.665	8.9087	20.665	9.81154
20.67	8.0087	20.67	8.77011
20.675	8.74835	20.675	9.90317
20.68	8.26835	20.68	8.48392
20.685	8.88285	20.685	9.77377
20.69	7.72305	20.69	9.05811
20.695	8.21247	20.695	10.4909
20.7	7.82577	20.7	9.01562
20.705	8.56859	20.705	10.2052
20.71	7.31714	20.71	9.60223
20.715	6.50977	20.715	9.01695
20.72	6.28193	20.72	8.19841
20.725	7.56558	20.725	9.4589
20.73	6.66629	20.73	8.96267
20.735	7.648	20.735	10.2633
20.74	6.18882	20.74	10.1306
20.745	6.61999	20.745	8.50376
20.75	5.92902	20.75	8.29617
20.755	7.24724	20.755	9.63303
20.76	5.98699	20.76	9.58104
20.765	7.88561	20.765	10.0273
20.77	6.82436	20.77	9.54366
20.775	6.58646	20.775	8.62119
20.78	7.86747	20.78	9.79897
20.785	6.78635	20.785	9.42072
20.79	6.68198	20.79	8.42887
20.795	5.87037	20.795	8.41664
20.8	5.25254	20.8	8.41491
20.805	7.30946	20.805	9.22242
20.81	6.32748	20.81	9.0493
20.815	5.5819	20.815	8.9269
20.82	6.11617	20.82	7.74001
20.825	5.78864	20.825	7.57642
20.83	7.29451	20.83	9.03137
20.835	7.29356	20.835	7.94954
20.84	6.27864	20.84	8.15076
20.845	6.37241	20.845	7.44512
20.85	6.58142	20.85	6.7756
20.855	7.86644	20.855	8.47438
20.86	7.07441	20.86	8.20091
20.865	6.71496	20.865	7.75966
20.87	8.34249	20.87	8.86084
20.875	7.42549	20.875	8.52105
20.88	6.73381	20.88	8.26861
20.885	7.31367	20.885	6.97913
20.89	6.63855	20.89	7.1205
20.895	7.79369	20.895	8.89432
20.9	7.86926	20.9	7.71219
20.905	7.05735	20.905	7.69269
20.91	6.44452	20.91	7.68046
20.915	8.89736	20.915	8.08814
20.92	7.44872	20.92	8.37892
20.925	7.12718	20.925	7.83062
20.93	9.50676	20.93	8.128
20.935	8.28921	20.935	8.05007
20.94	7.3722	20.94	7.99406
20.945	7.93155	20.945	6.70352
20.95	7.10067	20.95	6.9846
20.955	8.13906	20.955	8.86323
20.96	8.75263	20.96	7.13427
20.965	8.10798	20.965	6.941
20.97	9.76822	20.97	7.98174
20.975	9.11951	20.975	7.35306
20.98	8.0059	20.98	7.50728
20.985	10.3218	20.985	7.80131
20.99	8.9161	20.99	7.86136
20.995	8.245	20.995	7.52193
21	10.124	21	8.21454
21.005	9.39797	21.005	7.5662
21.01	8.61339	21.01	7.31875
21.015	10.7942	21.015	7.69341
21.02	9.67425	21.02	7.42703
21.025	8.44868	21.025	7.6116
21.03	10.9192	21.03	7.68989
21.035	9.38814	21.035	7.82959
21.04	11.391	21.04	8.11278
21.045	9.51218	21.045	8.40329
21.05	8.96624	21.05	7.75681
21.055	8.79385	21.055	7.03373
21.06	10.0871	21.06	8.39854
21.065	8.77922	21.065	8.39707
21.07	8.65867	21.07	7.53448
21.075	7.69995	21.075	7.75476
21.08	9.0296	21.08	9.20095
21.085	9.09301	21.085	7.91657
21.09	8.03087	21.09	8.06192
21.095	10.3855	21.095	8.34938
21.1	9.00909	21.1	8.4046
21.105	7.97317	21.105	8.44858
21.11	10.5861	21.11	8.42149
21.115	8.77496	21.115	8.86916
21.12	8.65895	21.12	7.9616
21.125	9.99458	21.125	9.18811
21.13	9.10553	21.13	8.696
21.135	8.53041	21.135	8.23431
21.14	7.61272	21.14	8.37344
21.145	6.92091	21.145	8.48037
21.15	8.92793	21.15	9.36454
21.155	7.9141	21.155	9.24405
21.16	7.15022	21.16	9.15628
21.165	7.05086	21.165	8.61598
21.17	6.49002	21.17	8.69616
21.175	7.0783	21.175	7.74647
21.18	8.4148	21.18	9.46879
21.185	7.52139	21.185	9.35365
21.19	6.84785	21.19	9.2699
21.195	7.20322	21.195	8.34569
21.2	8.26698	21.2	10.1852
21.205	7.41045	21.205	9.91657
21.21	7.86714	21.21	8.61517
21.215	7.10012	21.215	8.74782
21.22	6.52139	21.22	8.84993
21.225	8.6133	21.225	9.73051
21.23	7.66323	21.23	9.60736
21.235	8.0498	21.235	8.41508
21.24	7.85568	21.24	8.0041
21.245	6.84487	21.245	8.5603
21.25	9.71816	21.25	8.67603
21.255	8.48948	21.255	8.84394
21.26	7.95151	21.26	8.58556
21.265	8.26532	21.265	7.67373
21.27	7.39119	21.27	8.09858
21.275	7.98316	21.275	7.16889
21.28	8.8426	21.28	9.38619
21.285	7.83291	21.285	9.40092
21.29	7.69776	21.29	8.78914
21.295	7.35669	21.295	8.56927
21.3	7.10261	21.3	8.40193
21.305	7.39083	21.305	7.79692
21.31	7.1259	21.31	7.82354
21.315	8.4459	21.315	9.65487
21.32	8.55268	21.32	8.60911
21.325	8.01124	21.325	8.44563
21.33	7.45849	21.33	8.46901
21.335	7.18612	21.335	8.34366
21.34	6.9836	21.34	8.24722
21.345	7.31051	21.345	7.69538
21.35	8.74003	21.35	9.42728
21.355	8.16305	21.355	9.0729
21.36	7.97061	21.36	8.56616
21.365	7.58665	21.365	8.4251
21.37	6.9135	21.37	8.70382
21.375	7.03082	21.375	8.29005
21.38	6.87917	21.38	8.2187
21.385	6.76721	21.385	8.16277
21.39	7.3105	21.39	7.49291
21.395	6.47099	21.395	8.23685
21.4	8.37034	21.4	9.59596
21.405	7.90436	21.405	9.2034
21.41	7.55667	21.41	8.90657
21.415	6.91076	21.415	9.06849
21.42	8.06095	21.42	7.55468
21.425	7.05338	21.425	8.28894
21.43	6.92278	21.43	8.21394
21.435	7.45212	21.435	7.5298
21.44	7.22765	21.44	7.63755
21.445	6.43564	21.445	8.34142
21.45	8.37064	21.45	9.67049
21.455	8.31837	21.455	8.86847
21.46	7.89913	21.46	8.64641
21.465	8.21201	21.465	7.85198
21.47	7.82524	21.47	7.87703
21.475	7.53699	21.475	7.8934
21.48	9.61352	21.48	8.9432
21.485	8.89861	21.485	8.70053
21.49	8.36429	21.49	8.51614
21.495	8.97783	21.495	7.36302
21.5	8.43472	21.5	7.50093
21.505	7.64229	21.505	7.98892
21.51	7.81865	21.51	7.5837
21.515	7.57092	21.515	7.65925
21.52	6.7615	21.52	8.339
21.525	6.77958	21.525	8.22313
21.53	8.4604	21.53	9.79924
21.535	8.07201	21.535	9.32804
21.54	8.16955	21.54	8.58531
21.545	7.86273	21.545	8.40775
21.55	7.63451	21.55	8.2722
21.555	7.46523	21.555	8.16815
21.56	7.7271	21.56	7.70078
21.565	6.91806	21.565	8.35521
21.57	6.93644	21.57	8.22037
21.575	6.95212	21.575	8.11686
21.58	7.9782	21.58	7.02441
21.585	7.74452	21.585	7.20782
21.59	10.249	21.59	7.99595
21.595	8.84773	21.595	8.56441
21.6	8.80893	21.6	7.97815
21.605	8.78683	21.605	7.531
21.61	8.39031	21.61	7.57513
21.615	8.09484	21.615	7.60585
21.62	8.26211	21.62	7.23957
21.625	8.00762	21.625	7.34434
21.63	7.19319	21.63	8.04602
21.635	10.5109	21.635	7.97412
21.64	9.0963	21.64	8.52083
21.645	9.04753	21.645	7.91828
21.65	8.63104	21.65	7.84586
21.655	8.08208	21.655	8.02772
21.66	7.91372	21.66	7.92034
21.665	7.78939	21.665	7.83744
21.67	7.6981	21.67	7.7729
21.675	8.01853	21.675	7.33518
21.68	8.26588	21.68	6.99944
21.685	8.07149	21.685	7.12712
21.69	9.97999	21.69	8.49897
21.695	9.38058	21.695	8.25647
21.7	8.69446	21.7	8.31078
21.705	9.04873	21.705	7.48227
21.71	8.06766	21.71	8.10728
21.715	8.34406	21.715	7.56347
21.72	8.79694	21.72	6.90964
21.725	8.90226	21.725	6.65323
21.73	7.97589	21.73	7.46591
21.735	10.5842	21.735	8.10276
21.74	9.26089	21.74	8.55778
21.745	8.8937	21.745	8.27343
21.75	9.63274	21.75	7.04539
21.755	8.5584	21.755	7.75264
21.76	8.13939	21.76	7.89599
21.765	8.69402	21.765	7.13427
21.77	7.86325	21.77	7.80939
21.775	7.86545	21.775	7.69011
21.78	8.25606	21.78	7.21135
21.785	7.54367	21.785	7.85728
21.79	7.63467	21.79	7.71611
21.795	7.70492	21.795	7.60787
21.8	8.79954	21.8	9.81523
21.805	8.59491	21.805	9.19424
21.81	8.44347	21.81	8.72617
21.815	7.70644	21.815	8.99827
21.82	8.16591	21.82	8.18979
21.825	7.50521	21.825	8.58844
21.83	7.63498	21.83	8.26182
21.835	8.1213	21.835	7.62757
21.84	8.1062	21.84	7.53141
21.845	8.09691	21.845	7.45696
21.85	7.4665	21.85	8.02426
21.855	7.619	21.855	7.82412
21.86	7.73541	21.86	7.67168
21.865	7.19928	21.865	8.18049
21.87	6.79701	21.87	8.56196
21.875	7.12062	21.875	8.22246
21.88	6.73988	21.88	8.59096
21.885	7.07964	21.885	8.24173
21.89	7.09797	21.89	8.216
21.895	7.35516	21.895	7.95295
21.9	6.92461	21.9	8.3788
21.905	9.27936	21.905	9.35102
21.91	9.01472	21.91	8.80883
21.915	8.81831	21.915	8.39987
21.92	8.43453	21.92	8.32935
21.925	8.39016	21.925	8.03273
21.93	8.35895	21.93	7.80793
21.935	7.71212	21.935	8.26249
21.94	7.22686	21.94	8.60328
21.945	7.48825	21.945	8.23328
21.95	7.06088	21.95	8.57893
21.955	7.36569	21.955	8.21256
21.96	7.98331	21.96	7.54851
21.965	7.44125	21.965	8.05548
21.97	7.66004	21.97	7.81011
21.975	7.58767	21.975	7.86228
21.98	7.77687	21.98	7.65767
21.985	7.6823	21.985	7.74041
21.99	7.85486	21.99	7.55872
21.995	8.37329	21.995	7.03318
22	7.75684	22	7.64403
22.005	7.91984	22.005	7.47656
22.01	7.80564	22.01	7.58715
22.015	7.33798	22.015	8.05183
22.02	7.61258	22.02	7.77474
22.025	7.19513	22.025	8.19006
22.03	9.55973	22.03	9.15439
22.035	8.67703	22.035	9.23177
22.04	9.02732	22.04	8.27727
22.045	8.28479	22.045	8.56641
22.05	8.7402	22.05	7.77074
22.055	8.07651	22.055	8.179
22.06	7.96558	22.06	8.09814
22.065	8.12588	22.065	7.79377
22.07	8.00967	22.07	7.8017
22.075	8.16602	22.075	7.56392
22.08	8.67232	22.08	6.99631
22.085	8.0468	22.085	7.57563
22.09	7.57755	22.09	8.01
22.095	8.23793	22.095	7.32324
22.1	7.72797	22.1	7.81318
22.105	7.34539	22.105	8.18053
22.11	8.07077	22.11	7.44349
22.115	7.60956	22.115	7.89573
22.12	7.26355	22.12	8.2348
22.125	8.40331	22.125	7.0896
22.13	7.87101	22.13	7.61759
22.135	8.48412	22.135	7.00103
22.14	7.9387	22.14	7.54364
22.145	7.91647	22.145	7.56352
22.15	7.51784	22.15	7.96018
22.155	8.23118	22.155	7.24513
22.16	7.76094	22.16	7.71385
22.165	8.03364	22.165	7.4398
22.17	8.00174	22.17	7.47046
22.175	8.22132	22.175	7.24972
22.18	8.14958	22.18	7.32036
22.185	7.7138	22.185	7.75509
22.19	7.38687	22.19	8.08102
22.195	7.52851	22.195	7.93839
22.2	8.2652	22.2	7.20073
22.205	8.19943	22.205	7.26556
22.21	8.39361	22.21	7.07044
22.215	8.30282	22.215	7.1603
22.22	8.23971	22.22	7.22249
22.225	8.43589	22.225	7.02539
22.23	8.3466	22.23	7.11377
22.235	8.52314	22.235	6.93631
22.24	8.41913	22.24	7.03942
22.245	7.95915	22.245	7.49848
22.25	7.61407	22.25	7.84266
22.255	8.36759	22.255	7.08823
22.26	7.92749	22.26	7.52743
22.265	7.98427	22.265	7.46975
22.27	7.64488	22.27	7.80822
22.275	8.01573	22.275	7.43647
22.28	8.05744	22.28	7.39386
22.285	8.09371	22.285	7.35669
22.29	8.12589	22.29	7.3236
22.295	8.39355	22.295	7.05504
22.3	8.35787	22.3	7.08981
22.305	7.94915	22.305	7.49763
22.31	8.26799	22.31	7.17789
22.315	7.88376	22.315	7.56122
22.32	7.98243	22.32	7.46164
22.325	7.67448	22.325	7.76869
22.33	7.44342	22.33	7.99885
22.335	7.27003	22.335	8.17134
22.34	8.15232	22.34	7.28814
22.345	7.8088	22.345	7.63076
22.35	7.93802	22.35	7.50064
22.355	7.65297	22.355	7.78478
22.36	7.43909	22.36	7.99776
22.365	7.66553	22.365	7.77041
22.37	8.07888	22.37	7.35616
22.375	8.15248	22.375	7.28166
22.38	8.21266	22.38	7.22057
22.385	8.50132	22.385	6.93101
22.39	8.09445	22.39	7.33697
22.395	7.78921	22.395	7.64131
22.4	7.94713	22.4	7.48249
22.405	7.68361	22.405	7.7451
22.41	9.77676	22.41	8.98185
22.415	9.07238	22.415	8.88167
22.42	8.93097	22.42	8.41947
22.425	8.44298	22.425	8.45458
22.43	8.07691	22.43	8.48079
22.435	8.18923	22.435	8.11339
22.44	8.90397	22.44	7.20716
22.445	8.43481	22.445	7.53251
22.45	8.08287	22.45	7.7764
22.455	7.81884	22.455	7.95921
22.46	8.00769	22.46	7.70925
22.465	7.7674	22.465	7.90353
22.47	8.21259	22.47	7.42364
22.475	8.31008	22.475	7.29994
22.48	8.00127	22.48	7.58891
22.485	8.39507	22.485	7.18003
22.49	8.06707	22.49	7.49654
22.495	8.20796	22.495	7.34685
22.5	7.93168	22.5	7.61633
22.505	7.72441	22.505	7.81832
22.51	7.95583	22.51	7.58275
22.515	7.74746	22.515	7.78782
22.52	8.2166	22.52	7.31602
22.525	8.33206	22.525	7.19838
22.53	8.03671	22.53	7.4919
22.535	7.81514	22.535	7.71191
22.54	8.03584	22.54	7.48986
22.545	7.81943	22.545	7.70507
22.55	7.65705	22.55	7.86635
22.555	7.5352	22.555	7.9872
22.56	7.44374	22.56	8.07771
22.565	8.38751	22.565	7.13305
22.57	8.09013	22.57	7.42958
22.575	7.86703	22.575	7.65185
22.58	7.69963	22.58	7.81843
22.585	7.57402	22.585	7.94325
22.59	7.86669	22.59	7.6498
22.595	7.70426	22.595	7.81145
22.6	8.20785	22.6	7.30709
22.605	7.9622	22.605	7.55198
22.61	8.16485	22.61	7.34857
22.615	7.9349	22.615	7.57776
22.62	7.76237	22.62	7.74953
22.625	7.63291	22.625	7.87824
22.63	7.92269	22.63	7.5877
22.635	7.7581	22.635	7.75154
22.64	7.63459	22.64	7.8743
22.645	7.54189	22.645	7.96625
22.65	8.48472	22.65	7.02267
22.655	8.18665	22.655	7.31999
22.66	7.96302	22.66	7.54286
22.665	7.79524	22.665	7.7099
22.67	7.66934	22.67	7.83505
22.675	7.96179	22.675	7.54185
22.68	8.42468	22.68	7.0782
22.685	8.14851	22.685	7.35362
22.69	7.94132	22.69	7.56007
22.695	8.17281	22.695	7.32783
22.7	7.96449	22.7	7.53539
22.705	8.19514	22.705	7.30399
22.71	7.9862	22.71	7.51219
22.715	7.82942	22.715	7.66821
22.72	7.71178	22.72	7.78511
22.725	8.24896	22.725	7.24717
22.73	8.41546	22.73	7.07993
22.735	8.1584	22.735	7.33623
22.74	7.96555	22.74	7.52834
22.745	7.82084	22.745	7.67229
22.75	7.71225	22.75	7.78014
22.755	8.01769	22.755	7.47395
22.76	7.86484	22.76	7.62605
22.765	7.75014	22.765	7.74
22.77	7.66405	22.77	7.82534
22.775	7.59942	22.775	7.88922
22.78	7.93783	22.78	7.55006
22.785	8.43519	22.785	7.05195
22.79	8.18487	22.79	7.30151
22.795	7.99707	22.795	7.48856
22.8	7.85616	22.8	7.62873
22.805	8.13736	22.805	7.34678
22.81	7.96633	22.81	7.51705
22.815	7.838	22.815	7.64464
22.82	7.74169	22.82	7.7402
22.825	7.66939	22.825	7.81175
22.83	7.6151	22.83	7.86528
22.835	7.57433	22.835	7.90531
22.84	7.54368	22.84	7.93521
22.845	7.52063	22.845	7.9575
22.85	7.50329	22.85	7.9741
22.855	7.87716	22.855	7.59948
22.86	7.77564	22.86	7.70025
22.865	8.32491	22.865	7.15023
22.87	8.11353	22.87	7.36085
22.875	7.95494	22.875	7.5187
22.88	7.83593	22.88	7.63696
22.885	7.74661	22.885	7.72552
22.89	8.06651	22.89	7.40488
22.895	7.92451	22.895	7.54613
22.9	7.81794	22.9	7.65195
22.905	7.73796	22.905	7.73118
22.91	7.67791	22.91	7.79048
22.915	7.63281	22.915	7.83483
22.92	7.59892	22.92	7.86797
22.925	7.57344	22.925	7.8927
22.93	7.94122	22.93	7.52417
22.935	7.83513	22.935	7.62951
22.94	8.38098	22.94	7.08291
22.945	8.16703	22.945	7.29611
22.95	8.00651	22.95	7.45588
22.955	8.273	22.955	7.18864
22.96	8.09095	22.96	7.36994
22.965	7.95435	22.965	7.50579
22.97	7.85183	22.97	7.60755
22.975	7.77489	22.975	7.68375
22.98	7.71712	22.98	7.74077
22.985	7.67373	22.985	7.78341
22.99	7.64113	22.99	7.81526
22.995	7.61662	22.995	7.83902
23	7.59817	23	7.85671
23.005	7.97123	23.005	7.48291
23.01	7.48214	23.01	7.97125
23.015	7.49714	23.015	7.9555
23.02	7.89527	23.02	7.55662
23.025	7.81194	23.025	7.6392
23.03	7.74938	23.03	7.70101
23.035	7.7024	23.035	7.74724
23.04	7.66711	23.04	7.78178
23.045	7.64058	23.045	7.80756
23.05	7.62062	23.05	7.82677
23.055	7.99253	23.055	7.45411
23.06	7.88954	23.06	7.55635
23.065	8.43772	23.065	7.00742
23.07	8.22552	23.07	7.21887
23.075	7.44083	23.075	8.00281
23.08	8.10101	23.08	7.34188
23.085	7.34733	23.085	8.09481
23.09	8.03076	23.09	7.41063
23.095	7.92	23.095	7.52064
23.1	7.83687	23.1	7.60302
23.105	7.77447	23.105	7.66467
23.11	7.7276	23.11	7.71079
23.115	7.69239	23.115	7.74525
23.12	7.66593	23.12	7.77096
23.125	7.64602	23.125	7.79012
23.13	7.63103	23.13	7.80436
23.135	8.00667	23.135	7.42797
23.14	7.90648	23.14	7.52741
23.145	7.83127	23.145	7.60187
23.15	7.77481	23.15	7.65758
23.155	7.7324	23.155	7.69924
23.16	8.08748	23.16	7.34341
23.165	7.97187	23.165	7.45827
23.17	7.8851	23.17	7.54429
23.175	7.81996	23.175	7.60868
23.18	7.77105	23.18	7.65684
23.185	7.7343	23.185	7.69284
23.19	7.70669	23.19	7.7197
23.195	7.68591	23.195	7.73973
23.2	7.67027	23.2	7.75462
23.205	7.65848	23.205	7.76566
23.21	7.64958	23.21	7.77381
23.215	7.64285	23.215	7.7798
23.22	8.02468	23.22	7.39721
23.225	7.92913	23.225	7.49201
23.23	7.85741	23.23	7.56298
23.235	7.80356	23.235	7.61608
23.24	7.76311	23.24	7.65578
23.245	7.73272	23.245	7.68543
23.25	7.70986	23.25	7.70753
23.255	7.69266	23.255	7.72398
23.26	7.6797	23.26	7.7362
23.265	8.05686	23.265	7.35828
23.27	7.95781	23.27	7.45658
23.275	7.88346	23.275	7.53018
23.28	7.82764	23.28	7.58525
23.285	7.78572	23.285	7.62643
23.29	9.41961	23.29	9.32258
23.295	8.9941	23.295	8.94369
23.3	9.06187	23.3	8.27247
23.305	8.73079	23.305	8.15081
23.31	8.48244	23.31	8.05945
23.315	8.29614	23.315	7.99083
23.32	8.15637	23.32	7.93925
23.325	8.0515	23.325	7.90046
23.33	7.97281	23.33	7.87126
23.335	7.91376	23.335	7.84925
23.34	7.86942	23.34	7.83264
23.345	7.83613	23.345	7.82006
23.35	7.81112	23.35	7.81053
23.355	8.17927	23.355	7.41632
23.36	8.07348	23.36	7.50242
23.365	7.60714	23.365	7.95384
23.37	8.02617	23.37	7.52348
23.375	7.57158	23.375	7.96941
23.38	7.99941	23.38	7.53494
23.385	7.93838	23.385	7.59084
23.39	7.89256	23.39	7.63266
23.395	7.85816	23.395	7.66392
23.4	8.21927	23.4	7.30031
23.405	8.10819	23.405	7.40935
23.41	8.02484	23.41	7.49103
23.415	7.96229	23.415	7.55218
23.42	7.91534	23.42	7.59793
23.425	7.88008	23.425	7.63214
23.43	7.8536	23.43	7.65768
23.435	7.83369	23.435	7.67673
23.44	7.81873	23.44	7.69091
23.445	7.80746	23.445	7.70144
23.45	7.79897	23.45	7.70923
23.455	8.17951	23.455	7.32801
23.46	8.08301	23.46	7.42386
23.465	7.62364	23.465	7.88258
23.47	8.04789	23.47	7.4577
23.475	7.98417	23.475	7.5208
23.48	7.93634	23.48	7.56801
23.485	7.90043	23.485	7.60331
23.49	7.87345	23.49	7.62968
23.495	7.85318	23.495	7.64935
23.5	7.83793	23.5	7.66399
23.505	8.21341	23.505	7.28792
23.51	8.1131	23.51	7.38762
23.515	8.03784	23.515	7.46229
23.52	7.98135	23.52	7.51818
23.525	7.93894	23.525	7.55999
23.53	7.90709	23.53	7.59124
23.535	7.88317	23.535	7.61457
23.54	7.86518	23.54	7.63196
23.545	7.85165	23.545	7.64489
23.55	7.84146	23.55	7.65448
23.555	7.83378	23.555	7.66156
23.56	7.82798	23.56	7.66677
23.565	7.82359	23.565	7.67056
23.57	7.82026	23.57	7.6733
23.575	7.81771	23.575	7.67525
23.58	6.15037	23.58	6.0112
23.585	6.93764	23.585	6.02698
23.59	7.14617	23.59	6.42056
23.595	7.30251	23.595	6.71561
23.6	7.4197	23.6	6.93677
23.605	7.50754	23.605	7.10252
23.61	7.57335	23.61	7.2267
23.615	7.62266	23.615	7.31971
23.62	7.65957	23.62	7.38933
23.625	7.6872	23.625	7.44143
23.63	7.70786	23.63	7.48037
23.635	7.7233	23.635	7.50945
23.64	7.73482	23.64	7.53113
23.645	7.7434	23.645	7.54726
23.65	7.74977	23.65	7.55924
23.655	7.75449	23.655	7.56809
23.66	7.75797	23.66	7.5746
23.665	8.14747	23.665	7.19241
23.67	8.05767	23.67	7.2875
23.675	7.36477	23.675	7.98417
23.68	8.0938	23.68	7.2578
23.685	7.39175	23.685	7.96164
23.69	8.11391	23.69	7.24065
23.695	7.40672	23.695	7.94853
23.7	7.49953	23.7	7.85603
23.705	8.19457	23.705	7.16106
23.71	7.46703	23.71	7.88845
23.715	7.54458	23.715	7.8106
23.72	8.22817	23.72	7.1266
23.725	8.11753	23.725	7.23675
23.73	7.40901	23.73	7.94471
23.735	7.88778	23.735	7.46534
23.74	7.86493	23.74	7.48754
23.745	7.84773	23.745	7.50407
23.75	7.83477	23.75	7.51634
23.755	7.82499	23.755	7.52542
23.76	7.81759	23.76	7.5321
23.765	7.81198	23.765	7.53698
23.77	7.80772	23.77	7.54052
23.775	7.80446	23.775	7.54304
23.78	7.80195	23.78	7.54481
23.785	7.80001	23.785	7.54601
23.79	7.7985	23.79	7.54678
23.795	9.46269	23.795	9.21263
23.8	9.05991	23.8	8.81102
23.805	8.75778	23.805	8.5097
23.81	8.53114	23.81	8.2836
23.815	8.36112	23.815	8.11392
23.82	8.62051	23.82	7.59961
23.825	8.43314	23.825	7.59563
23.83	8.29258	23.83	7.59254
23.835	8.18711	23.835	7.59011
23.84	8.10797	23.84	7.58819
23.845	8.04857	23.845	7.58663
23.85	8.00398	23.85	7.58536
23.855	7.9705	23.855	7.5843
23.86	7.94535	23.86	7.5834
23.865	7.92644	23.865	7.58261
23.87	7.91222	23.87	7.58191
23.875	7.90151	23.875	7.58128
23.88	7.89344	23.88	7.5807
23.885	7.88734	23.885	7.58016
23.89	7.88273	23.89	7.57965
23.895	7.87923	23.895	7.57915
23.9	7.87656	23.9	7.57868
23.905	7.87452	23.905	7.57821
23.91	7.87294	23.91	7.57775
23.915	7.87172	23.915	7.5773
23.92	7.87076	23.92	7.57686
23.925	7.87	23.925	7.57642
23.93	7.86939	23.93	7.57598
23.935	7.86889	23.935	7.57554
23.94	8.25542	23.94	7.18816
23.945	7.77647	23.945	7.66633
23.95	7.79907	23.95	7.64298
23.955	7.81599	23.955	7.62536
23.96	7.82863	23.96	7.61204
23.965	7.83807	23.965	7.60194
23.97	7.84511	23.97	7.59426
23.975	7.85035	23.975	7.58839
23.98	7.85424	23.98	7.58388
23.985	7.85711	23.985	7.58039
23.99	7.85922	23.99	7.57767
23.995	7.86077	23.995	7.57552
24	7.86188	24	7.5738
24.005	7.86268	24.005	7.5724
24.01	7.86323	24.01	7.57124
24.015	7.86361	24.015	7.57027
24.02	7.86385	24.02	7.56943
24.025	7.86399	24.025	7.56869
24.03	7.86405	24.03	7.56803
24.035	7.86405	24.035	7.56743
24.04	7.86402	24.04	7.56687
24.045	7.86395	24.045	7.56634
24.05	7.86385	24.05	7.56584
24.055	7.86374	24.055	7.56536
24.06	7.86361	24.06	7.56488
24.065	7.86348	24.065	7.56442
24.07	7.86333	24.07	7.56397
24.075	7.86319	24.075	7.56352
24.08	7.86303	24.08	7.56308
24.085	7.86288	24.085	7.56264
24.09	7.86272	24.09	7.5622
24.095	7.86256	24.095	7.56177
24.1	7.86239	24.1	7.56133
24.105	7.86223	24.105	7.5609
24.11	7.86207	24.11	7.56047
24.115	7.8619	24.115	7.56003
24.12	7.86174	24.12	7.5596
24.125	7.86157	24.125	7.55917
24.13	7.86141	24.13	7.55874
24.135	7.86124	24.135	7.55831
24.14	7.86108	24.14	7.55788
24.145	7.86091	24.145	7.55745
24.15	7.86074	24.15	7.55702
24.155	7.86058	24.155	7.55659
24.16	7.86041	24.16	7.55615
24.165	7.4733	24.165	7.94267
24.17	7.56479	24.17	7.85059
24.175	7.63336	24.175	7.78141
24.18	7.68475	24.18	7.72943
24.185	7.72325	24.185	7.69033
24.19	7.75209	24.19	7.6609
24.195	7.77367	24.195	7.63872
24.2	7.78982	24.2	7.62198
24.205	7.80189	24.205	7.60931
24.21	7.18542	24.21	8.22518
24.215	7.97177	24.215	7.43823
24.22	7.93823	24.22	7.47118
24.225	7.91303	24.225	7.49578
24.23	7.2686	24.23	8.13961
24.235	8.034	24.235	7.37362
24.24	7.98473	24.24	7.42229
24.245	7.32225	24.245	8.08417
24.25	8.07411	24.25	7.33172
24.255	8.01469	24.255	7.39054
24.26	7.97008	24.26	7.43456
24.265	7.3111	24.265	8.09294
24.27	8.06558	24.27	7.33787
24.275	8.00812	24.275	7.39473
24.28	7.33951	24.28	8.06274
24.285	8.08676	24.285	7.3149
24.29	8.02388	24.29	7.37718
24.295	7.3512	24.295	8.04926
24.3	7.46992	24.3	7.92994
24.305	8.1844	24.305	7.21487
24.31	7.47146	24.31	7.92721
24.315	8.18547	24.315	7.2126
24.32	8.09766	24.32	7.29981
24.325	7.40628	24.325	7.9906
24.33	8.13646	24.33	7.25982
24.335	8.06078	24.335	7.33491
24.34	8.00398	24.34	7.39111
24.345	7.33585	24.345	8.05864
24.35	7.45799	24.35	7.93591
24.355	8.17503	24.355	7.21827
24.36	8.0895	24.36	7.30321
24.365	8.02531	24.365	7.3668
24.37	7.97712	24.37	7.41439
24.375	7.31546	24.375	8.07545
24.38	8.06793	24.38	7.32239
24.385	8.00896	24.385	7.38076
24.39	7.96469	24.39	7.42443
24.395	7.93145	24.395	7.45707
24.4	7.90648	24.4	7.48145
24.405	7.26223	24.405	8.12511
24.41	8.02775	24.41	7.35899
24.415	7.97858	24.415	7.40756
24.42	7.94166	24.42	7.44389
24.425	7.91393	24.425	7.47102
24.43	7.89309	24.43	7.49127
24.435	7.87741	24.435	7.50634
24.44	7.86562	24.44	7.51754
24.445	9.52213	24.445	9.19123
24.45	9.11359	24.45	8.79551
24.455	8.80717	24.455	8.49864
24.46	8.57733	24.46	8.2759
24.465	8.40493	24.465	8.10875
24.47	8.27561	24.47	7.9833
24.475	8.17859	24.475	7.88913
24.48	8.10581	24.48	7.81841
24.485	8.0512	24.485	7.76528
24.49	8.01022	24.49	7.72534
24.495	7.97946	24.495	7.6953
24.5	7.95637	24.5	7.67269
24.505	7.93903	24.505	7.65563
24.51	7.926	24.51	7.64276
24.515	7.91621	24.515	7.63301
24.52	7.90884	24.52	7.62561
24.525	7.90329	24.525	7.61998
24.53	7.51216	24.53	8.00261
24.535	7.98761	24.535	7.52068
24.54	7.9623	24.54	7.54101
24.545	7.9433	24.545	7.55617
24.55	7.92902	24.55	7.56745
24.555	7.9183	24.555	7.57582
24.56	7.91023	24.56	7.58201
24.565	7.90415	24.565	7.58657
24.57	7.89958	24.57	7.5899
24.575	7.89612	24.575	7.59231
24.58	7.89351	24.58	7.59402
24.585	7.89152	24.585	7.59522
24.59	7.89001	24.59	7.59603
24.595	7.88886	24.595	7.59655
24.6	7.50103	24.6	7.9838
24.605	7.59199	24.605	7.89228
24.61	7.66019	24.61	7.82356
24.615	7.71132	24.615	7.77192
24.62	7.74965	24.62	7.73311
24.625	7.77837	24.625	7.70391
24.63	7.79989	24.63	7.68192
24.635	7.81601	24.635	7.66535
24.64	7.82807	24.64	7.65282
24.645	7.8371	24.645	7.64334
24.65	7.84384	24.65	7.63614
24.655	8.23583	24.655	7.24371
24.66	7.76098	24.66	7.71811
24.665	8.17364	24.665	7.30501
24.67	7.7143	24.67	7.7639
24.675	7.75163	24.675	7.72612
24.68	7.77961	24.68	7.6977
24.685	7.80057	24.685	7.67629
24.69	7.81627	24.69	7.66015
24.695	7.82803	24.695	7.64795
24.7	7.83682	24.7	7.63872
24.705	7.84339	24.705	7.6317
24.71	7.84829	24.71	7.62635
24.715	7.85195	24.715	7.62225
24.72	7.85467	24.72	7.61909
24.725	7.85669	24.725	7.61663
24.73	7.85818	24.73	7.61469
24.735	7.85928	24.735	7.61315
24.74	7.86008	24.74	7.61191
24.745	7.86065	24.745	7.61089
24.75	7.86107	24.75	7.61004
24.755	7.86135	24.755	7.60931
24.76	7.86154	24.76	7.60867
24.765	7.86166	24.765	7.60811
24.77	7.86173	24.77	7.6076
24.775	8.24871	24.775	7.22018
24.78	8.15705	24.78	7.31139
24.785	8.08829	24.785	7.37971
24.79	7.64975	24.79	7.81781
24.795	7.70268	24.795	7.76443
24.8	7.74236	24.8	7.72431
24.805	7.7721	24.805	7.69413
24.81	7.79438	24.81	7.6714
24.815	7.81107	24.815	7.65427
24.82	7.82356	24.82	7.64133
24.825	7.83291	24.825	7.63154
24.83	7.8399	24.83	7.62411
24.835	7.84512	24.835	7.61845
24.84	7.84901	24.84	7.61411
24.845	8.23885	24.845	7.22383
24.85	8.14935	24.85	7.31289
24.855	8.0822	24.855	7.3796
24.86	8.03181	24.86	7.42954
24.865	7.994	24.865	7.46691
24.87	7.96562	24.87	7.49485
24.875	7.94431	24.875	7.51571
24.88	7.92831	24.88	7.53127
24.885	7.91628	24.885	7.54285
24.89	7.52029	24.89	7.9384
24.895	7.99209	24.895	7.46616
24.9	7.57711	24.9	7.8807
24.905	7.64771	24.905	7.80965
24.91	8.08759	24.91	7.36933
24.915	8.03561	24.915	7.42087
24.92	7.9966	24.92	7.45943
24.925	7.96732	24.925	7.48827
24.93	7.94534	24.93	7.5098
24.935	7.92884	24.935	7.52587
24.94	7.91643	24.94	7.53783
24.945	7.90711	24.945	7.54671
24.95	7.90009	24.95	7.55328
24.955	7.89481	24.955	7.55813
24.96	7.89082	24.96	7.56167
24.965	7.88781	24.965	7.56424
24.97	7.88553	24.97	7.56607
24.975	7.8838	24.975	7.56736
24.98	7.88247	24.98	7.56824
24.985	7.88146	24.985	7.56881
24.99	7.88068	24.99	7.56915
24.995	7.88007	24.995	7.56932
25	21.0289	25	20.7187
25.005	21.046	25.005	20.7361
25.01	21.0631	25.01	20.7534
25.015	21.0803	25.015	20.7706
25.02	21.0976	25.02	20.7879
25.025	21.1148	25.025	20.8051
25.03	21.1321	25.03	20.8222
25.035	21.1494	25.035	20.8394
25.04	21.1668	25.04	20.8565
25.045	21.1841	25.045	20.8736
25.05	21.2014	25.05	20.8908
25.055	21.2188	25.055	20.9079
25.06	21.2361	25.06	20.925
25.065	21.879	25.065	20.3166
25.07	20.0768	25.07	18.8225
25.075	20.3803	25.075	19.357
25.08	20.6123	25.08	19.7622
25.085	20.7906	25.085	20.0703
25.09	20.9287	25.09	20.3057
25.095	21.0366	25.095	20.4865
25.1	21.1218	25.1	20.6263
25.105	19.5246	25.105	19.07
25.11	20.3689	25.11	19.171
25.115	21.2501	25.115	19.0074
25.12	20.905	25.12	19.8991
25.125	19.7539	25.125	18.1379
25.13	19.777	25.13	19.2409
25.135	20.5673	25.135	19.3036
25.14	19.1172	25.14	18.0713
25.145	20.3102	25.145	18.1767
25.15	19.5735	25.15	19.8956
25.155	19.3774	25.155	17.506
25.16	19.2549	25.16	18.9996
25.165	20.416	25.165	18.8751
25.17	19.3893	25.17	17.3569
25.175	20.1311	25.175	18.0166
25.18	18.5464	25.18	17.3301
25.185	19.2543	25.185	18.2288
25.19	18.7495	25.19	16.6161
25.195	17.7374	25.195	16.0195
25.2	16.968	25.2	15.5616
25.205	17.8074	25.205	17.1117
25.21	17.0171	25.21	16.3716
25.215	17.9035	25.215	14.3165
25.22	17.8714	25.22	16.7821
25.225	16.6363	25.225	13.189
25.23	15.4784	25.23	14.0065
25.235	17.2751	25.235	15.2643
25.24	15.301	25.24	12.8757
25.245	15.3175	25.245	12.868
25.25	16.5048	25.25	14.9969
25.255	13.8955	25.255	10.109
25.26	13.7446	25.26	11.2193
25.265	14.1009	25.265	11.5614
25.27	13.2245	25.27	9.60946
25.275	13.6823	25.275	10.3109
25.28	13.5351	25.28	11.3061
25.285	11.337	25.285	7.45717
25.29	11.3489	25.29	9.49206
25.295	10.9305	25.295	8.09324
25.3	10.355	25.3	7.25508
25.305	11.1816	25.305	8.64832
25.31	11.7907	25.31	9.68231
25.315	8.25288	25.315	4.43825
25.32	9.92307	25.32	6.06504
25.325	10.7829	25.325	7.65596
25.33	4.75519	25.33	2.17651
25.335	5.787	25.335	2.36845
25.34	7.57736	25.34	4.77537
25.345	7.63056	25.345	4.51701
25.35	8.54136	25.35	6.73168
25.355	8.31669	25.355	5.94721
25.36	7.74059	25.36	5.7149
25.365	8.94815	25.365	7.18021
25.37	8.17713	25.37	6.60243
25.375	4.62919	25.375	2.42544
25.38	6.52766	25.38	4.61576
25.385	7.94008	25.385	6.24699
25.39	3.99178	25.39	2.4627
25.395	5.97171	25.395	4.56557
25.4	7.05818	25.4	6.51804
25.405	5.53803	25.405	3.63262
25.41	7.06483	25.41	5.38192
25.415	8.19829	25.415	6.68217
25.42	4.04055	25.42	2.64944
25.425	5.47626	25.425	4.9527
25.43	2.31391	25.43	0.903317
25.435	2.4488	25.435	1.91046
25.44	4.57087	25.44	3.92291
25.445	1.15435	25.445	0.424083
25.45	3.53269	25.45	2.7406
25.455	4.91752	25.455	4.85288
25.46	5.04757	25.46	3.9908
25.465	3.72427	25.465	4.7119
25.47	5.37576	25.47	5.88633
25.475	4.93689	25.475	5.08958
25.48	6.24651	25.48	6.1307
25.485	7.21657	25.485	6.89931
25.49	6.26655	25.49	5.79811
25.495	5.91428	25.495	4.55848
25.5	6.90686	25.5	5.64918
25.505	5.58668	25.505	5.17641
25.51	6.61701	25.51	6.07847
25.515	7.37744	25.515	6.74261
25.52	6.27002	25.52	5.5629
25.525	7.07798	25.525	6.31654
25.53	7.67155	25.53	6.8693
25.535	6.05196	25.535	5.99291
25.54	6.85758	25.54	6.59211
25.545	7.83626	25.545	6.642
25.55	3.17973	25.55	2.05252
25.555	4.00196	25.555	4.17591
25.56	1.89852	25.56	1.80171
25.565	3.61008	25.565	3.31012
25.57	4.88108	25.57	4.42868
25.575	3.76931	25.575	3.97638
25.58	5.34246	25.58	4.50643
25.585	6.12771	25.585	5.27301
25.59	5.03849	25.59	4.1697
25.595	5.85967	25.595	4.98022
25.6	8.12813	25.6	7.24061
25.605	6.50037	25.605	5.60671
25.61	6.91758	25.61	6.01924
25.615	7.60456	25.615	5.92873
25.62	6.05964	25.62	4.56433
25.625	6.53891	25.625	5.17891
25.63	6.25992	25.63	6.25229
25.635	4.99558	25.635	4.7556
25.64	5.68521	25.64	5.27088
25.645	6.57635	25.645	5.25728
25.65	5.18439	25.65	3.95042
25.655	5.77822	25.655	4.60799
25.66	7.87589	25.66	6.75338
25.665	6.11974	25.665	5.03294
25.67	8.49271	25.67	6.65873
25.675	8.22654	25.675	6.59582
25.68	6.7353	25.68	4.48304
25.685	6.87269	25.685	4.91793
25.69	8.6279	25.69	6.89619
25.695	8.2802	25.695	6.71569
25.7	8.00618	25.7	6.56699
25.705	7.7874	25.705	6.44212
25.71	7.99699	25.71	5.94816
25.715	9.42441	25.715	7.61157
25.72	8.83078	25.72	7.19485
25.725	8.37224	25.725	6.86892
25.73	8.01499	25.73	6.61104
25.735	8.12065	25.735	6.01725
25.74	7.80465	25.74	5.94032
25.745	7.9412	25.745	5.48219
25.75	7.64834	25.75	5.50697
25.755	9.08065	25.755	7.17743
25.76	8.10361	25.76	7.15282
25.765	9.79159	25.765	8.01741
25.77	9.01136	25.77	7.38329
25.775	10.0781	25.775	8.55954
25.78	9.21381	25.78	7.77728
25.785	10.2175	25.785	8.84241
25.79	9.30586	25.79	7.9768
25.795	10.661	25.795	8.59244
25.8	9.63104	25.8	7.77155
25.805	8.84506	25.805	7.14228
25.81	9.90743	25.81	8.32209
25.815	9.03976	25.815	7.54242
25.82	10.6663	25.82	7.98394
25.825	11.2639	25.825	8.9392
25.83	10.0476	25.83	7.9911
25.835	9.12183	25.835	7.26636
25.84	10.0793	25.84	8.37451
25.845	10.7983	25.845	9.20644
25.85	9.673	25.85	8.16581
25.855	10.4808	25.855	9.03702
25.86	10.7006	25.86	10.0782
25.865	9.96977	25.865	8.42562
25.87	10.93	25.87	8.98121
25.875	9.74432	25.875	7.97469
25.88	10.5068	25.88	8.87144
25.885	11.0794	25.885	9.54477
25.89	11.5098	25.89	10.0505
25.895	10.168	25.895	8.76519
25.9	10.4264	25.9	9.83977
25.905	8.95054	25.905	8.98613
25.91	10.5027	25.91	8.99016
25.915	11.0444	25.915	9.61717
25.92	9.39906	25.92	8.8097
25.925	10.1986	25.925	9.47382
25.93	10.7991	25.93	9.97261
25.935	11.2502	25.935	10.3474
25.94	11.2024	25.94	11.0161
25.945	10.5093	25.945	8.84565
25.95	11.0178	25.95	9.49262
25.955	11.013	25.955	10.3655
25.96	9.33976	25.96	9.36048
25.965	8.06595	25.965	8.59797
25.97	9.14408	25.97	9.29575
25.975	10.1919	25.975	9.58119
25.98	10.7372	25.98	10.0373
25.985	9.09446	25.985	9.1016
25.99	9.89591	25.99	9.66947
25.995	10.1108	25.995	10.4829
26	10.6545	26	10.7118
26.005	9.63609	26.005	8.9801
26.01	10.2825	26.01	9.57425
26.015	8.71564	26.015	8.742
26.02	9.18699	26.02	9.77437
26.025	9.92304	26.025	10.1674
26.03	8.66193	26.03	8.94571
26.035	9.12117	26.035	9.92741
26.04	8.0343	26.04	8.76539
26.045	9.01114	26.045	9.40485
26.05	9.35746	26.05	10.2719
26.055	8.33431	26.055	8.87552
26.06	9.45698	26.06	9.24109
26.065	10.0582	26.065	9.7572
26.07	8.45739	26.07	8.86635
26.075	8.90319	26.075	9.85468
26.08	9.23306	26.08	10.6015
26.085	9.86293	26.085	10.7803
26.09	9.29601	26.09	8.62397
26.095	9.51208	26.095	9.66833
26.1	9.66963	26.1	10.4572
26.105	10.1702	26.105	10.6674
26.11	8.88088	26.11	9.16017
26.115	9.4169	26.115	9.82951
26.12	10.3469	26.12	9.80457
26.125	10.2761	26.125	10.5551
26.13	8.55313	26.13	9.45821
26.135	9.29419	26.135	9.90498
26.14	10.476	26.14	9.61502
26.145	10.3527	26.145	10.4082
26.15	8.97724	26.15	8.95627
26.155	9.59705	26.155	9.51864
26.16	8.0101	26.16	8.66238
26.165	9.09168	26.165	9.05109
26.17	9.66196	26.17	9.58442
26.175	9.70324	26.175	10.3718
26.18	8.45117	26.18	8.91542
26.185	9.1635	26.185	9.47444
26.19	10.3237	26.19	9.2686
26.195	10.1841	26.195	10.1248
26.2	10.4618	26.2	10.3855
26.205	10.6706	26.205	10.5814
26.21	9.16222	26.21	9.06329
26.215	9.68232	26.215	9.57597
26.22	10.0729	26.22	9.96084
26.225	9.9793	26.225	10.6368
26.23	10.2915	26.23	10.7623
26.235	9.48613	26.235	8.56585
26.24	9.91021	26.24	9.19305
26.245	9.84177	26.245	10.0507
26.25	8.50736	26.25	8.64708
26.255	9.39641	26.255	9.00701
26.26	9.82223	26.26	9.51869
26.265	10.142	26.265	9.90278
26.27	8.71691	26.27	8.52576
26.275	9.29937	26.275	9.1442
26.28	9.97517	26.28	9.36979
26.285	10.241	26.285	9.78069
26.29	8.77544	26.29	8.42378
26.295	9.32754	26.295	9.05726
26.3	9.74201	26.3	9.53266
26.305	10.0533	26.305	9.88949
26.31	10.9126	26.31	9.53191
26.315	9.26878	26.315	8.22188
26.32	9.68721	26.32	8.89052
26.325	9.61446	26.325	9.7792
26.33	9.94214	26.33	10.0641
26.335	10.1883	26.335	10.2781
26.34	10.3733	26.34	10.4388
26.345	8.84698	26.345	8.89418
26.35	9.35352	26.35	9.38687
26.355	10.3593	26.355	9.13115
26.36	10.4907	26.36	9.56287
26.365	10.5896	26.365	9.88691
26.37	10.6641	26.37	10.1302
26.375	9.05497	26.375	8.64747
26.38	9.49935	26.38	9.18655
26.385	9.83298	26.385	9.59109
26.39	10.3221	26.39	9.65618
26.395	10.4478	26.395	9.94663
26.4	10.5425	26.4	10.1647
26.405	8.94842	26.405	8.66305
26.41	9.40409	26.41	9.18792
26.415	9.74616	26.415	9.58178
26.42	10.003	26.42	9.87737
26.425	10.196	26.425	10.0993
26.43	10.3411	26.43	10.2659
26.435	10.4502	26.435	10.3911
26.44	11.1578	26.44	9.85967
26.445	11.0656	26.445	10.0846
26.45	10.9968	26.45	10.2535
26.455	10.9455	26.455	10.3804
26.46	9.24189	26.46	8.81031
26.465	9.22848	26.465	9.6708
26.47	9.60058	26.47	9.93449
26.475	9.87997	26.475	10.1324
26.48	10.0898	26.48	10.2811
26.485	10.2475	26.485	10.3927
26.49	10.3661	26.49	10.4767
26.495	11.0808	26.495	9.91432
26.5	9.32844	26.5	8.45061
26.505	9.66537	26.505	9.00388
26.51	9.91835	26.51	9.419
26.515	10.1084	26.515	9.7305
26.52	9.86423	26.52	10.3512
26.525	10.0633	26.525	10.4351
26.53	10.2128	26.53	10.4981
26.535	10.3253	26.535	10.5456
26.54	9.37001	26.54	8.29045
26.545	9.68144	26.545	8.87341
26.55	9.91527	26.55	9.31077
26.555	10.0909	26.555	9.63893
26.56	10.2229	26.56	9.8852
26.565	10.3222	26.565	10.07
26.57	10.3969	26.57	10.2088
26.575	8.78781	26.575	8.64763
26.58	9.23213	26.58	9.12777
26.585	9.56562	26.585	9.48799
26.59	10.0545	26.59	9.51974
26.595	10.18	26.595	9.78509
26.6	10.2744	26.6	9.98422
26.605	10.3455	26.605	10.1337
26.61	8.7336	26.61	8.58052
26.615	9.17582	26.615	9.06663
26.62	9.50771	26.62	9.43132
26.625	9.75687	26.625	9.70494
26.63	9.94396	26.63	9.91026
26.635	10.0845	26.635	10.0643
26.64	10.1902	26.64	10.18
26.645	10.2696	26.645	10.2669
26.65	10.3294	26.65	10.3321
26.655	10.3745	26.655	10.3812
26.66	11.0341	26.66	9.79255
26.665	10.9057	26.665	9.97448
26.67	9.14423	26.67	8.44562
26.675	9.47424	26.675	8.94996
26.68	9.72196	26.68	9.32829
26.685	9.90796	26.685	9.61212
26.69	10.0477	26.69	9.82508
26.695	10.1527	26.695	9.98488
26.7	10.2316	26.7	10.1048
26.705	10.2911	26.705	10.1948
26.71	10.3358	26.71	10.2625
26.715	10.3696	26.715	10.3132
26.72	10.3952	26.72	10.3514
26.725	10.4146	26.725	10.3801
26.73	10.4293	26.73	10.4017
26.735	10.4406	26.735	10.418
26.74	10.4493	26.74	10.4303
26.745	8.79059	26.745	8.77425
26.75	9.19766	26.75	9.18314
26.755	9.50316	26.755	9.48987
26.76	9.73247	26.76	9.71998
26.765	9.90465	26.765	9.89263
26.77	10.034	26.77	10.0222
26.775	10.1312	26.775	10.1194
26.78	10.8297	26.78	9.5669
26.785	10.7306	26.785	9.77586
26.79	10.6564	26.79	9.93265
26.795	10.601	26.795	10.0503
26.8	10.5596	26.8	10.1386
26.805	10.5287	26.805	10.2049
26.81	10.5058	26.81	10.2547
26.815	9.21033	26.815	8.23971
26.82	9.50793	26.82	8.7613
26.825	9.73131	26.825	9.15254
26.83	9.89902	26.83	9.44601
26.835	10.025	26.835	9.66615
26.84	10.1196	26.84	9.8313
26.845	10.1908	26.845	9.95521
26.85	10.2443	26.85	10.0482
26.855	10.2846	26.855	10.118
26.86	10.3151	26.86	10.1703
26.865	10.3381	26.865	10.2097
26.87	10.3555	26.87	10.2392
26.875	10.3687	26.875	10.2614
26.88	10.3788	26.88	10.2781
26.885	10.7735	26.885	9.90368
26.89	9.02244	26.89	8.3394
26.895	9.36019	26.895	8.81711
26.9	9.61366	26.9	9.17542
26.905	9.80392	26.905	9.44417
26.91	9.94676	26.91	9.64576
26.915	10.0541	26.915	9.79697
26.92	10.1347	26.92	9.91041
26.925	10.1953	26.925	9.99551
26.93	10.2409	26.93	10.0594
26.935	10.6622	26.935	9.72032
26.94	10.5965	26.94	9.84793
26.945	10.5474	26.945	9.94367
26.95	10.5107	26.95	10.0155
26.955	10.4833	26.955	10.0694
26.96	10.4629	26.96	10.1098
26.965	10.4478	26.965	10.1402
26.97	8.77124	26.97	8.49757
26.975	9.16483	26.975	8.91652
26.98	9.46016	26.98	9.23073
26.985	9.68179	26.985	9.46639
26.99	10.2351	26.99	9.2562
26.995	10.2683	26.995	9.48042
27	10.2934	27	9.6486
27.005	10.3124	27.005	9.77473
27.01	9.70123	27.01	10.4948
27.015	9.86628	27.015	10.4116
27.02	9.9902	27.02	10.3492
27.025	10.4702	27.025	9.91548
27.03	10.0616	27.03	10.359
27.035	10.524	27.035	9.92282
27.04	10.4891	27.04	9.97757
27.045	10.4631	27.045	10.0186
27.05	10.4437	27.05	10.0494
27.055	10.4293	27.055	10.0725
27.06	10.4186	27.06	10.0899
27.065	10.4108	27.065	10.1029
27.07	10.405	27.07	10.1126
27.075	10.4008	27.075	10.12
27.08	10.3978	27.08	10.1255
27.085	8.73029	27.085	8.46421
27.09	9.13066	27.09	8.86914
27.095	9.818	27.095	8.78588
27.1	9.95176	27.1	9.10528
27.105	10.0522	27.105	9.34482
27.11	10.1276	27.11	9.52446
27.115	10.1843	27.115	9.65918
27.12	10.227	27.12	9.7602
27.125	10.2591	27.125	9.83596
27.13	10.6702	27.13	9.50582
27.135	10.5968	27.135	9.64006
27.14	10.5419	27.14	9.74073
27.145	10.5008	27.145	9.81622
27.15	10.4701	27.15	9.87282
27.155	10.4472	27.155	9.91526
27.16	10.4301	27.16	9.94707
27.165	9.79194	27.165	10.5964
27.17	9.9367	27.17	10.4601
27.175	10.0454	27.175	10.3579
27.18	10.127	27.18	10.2812
27.185	10.1884	27.185	10.2237
27.19	10.2345	27.19	10.1805
27.195	10.2692	27.195	10.1481
27.2	10.2953	27.2	10.1238
27.205	10.702	27.205	9.71866
27.21	10.6252	27.21	9.79662
27.215	10.5678	27.215	9.85508
27.22	10.5248	27.22	9.89892
27.225	10.4927	27.225	9.93178
27.23	10.4687	27.23	9.95642
27.235	10.4509	27.235	9.97488
27.24	10.4376	27.24	9.98871
27.245	10.4278	27.245	9.99908
27.25	10.8074	27.25	9.61989
27.255	10.3235	27.255	10.1043
27.26	10.104	27.26	10.3243
27.265	10.1809	27.265	10.2478
27.27	10.2387	27.27	10.1905
27.275	10.2821	27.275	10.1474
27.28	10.3148	27.28	10.1152
27.285	10.3394	27.285	10.091
27.29	10.358	27.29	10.0728
27.295	10.3721	27.295	10.0591
27.3	10.3828	27.3	10.0489
27.305	10.3909	27.305	10.0412
27.31	10.3971	27.31	10.0354
27.315	10.7888	27.315	9.64411
27.32	10.3138	27.32	10.1194
27.325	10.7266	27.325	9.70712
27.33	10.6544	27.33	9.77972
27.335	10.6003	27.335	9.83417
27.34	9.93445	27.34	10.5005
27.345	10.0584	27.345	10.3769
27.35	8.87306	27.35	8.23189
27.355	9.25316	27.355	8.65586
27.36	9.53832	27.36	8.9738
27.365	9.75229	27.365	9.21222
27.37	9.91287	27.37	9.39101
27.375	10.0334	27.375	9.52508
27.38	10.1239	27.38	9.62559
27.385	10.1918	27.385	9.70095
27.39	10.2429	27.39	9.75744
27.395	10.2813	27.395	9.79978
27.4	10.3102	27.4	9.8315
27.405	10.3319	27.405	9.85526
27.41	10.3483	27.41	9.87306
27.415	10.3607	27.415	9.88637
27.42	10.1316	27.42	10.1349
27.425	10.2013	27.425	10.0798
27.43	10.2536	27.43	10.0385
27.435	10.2929	27.435	10.0074
27.44	10.3225	27.44	9.98413
27.445	10.3448	27.445	9.96663
27.45	10.3616	27.45	9.95347
27.455	10.3743	27.455	9.94358
27.46	10.3839	27.46	9.93613
27.465	10.3912	27.465	9.93051
27.47	10.3968	27.47	9.92627
27.475	10.4011	27.475	9.92306
27.48	10.7913	27.48	9.53368
27.485	10.7022	27.485	9.62347
27.49	10.01	27.49	10.3163
27.495	10.1142	27.495	10.2126
27.5	10.1925	27.5	10.1348
27.505	10.2513	27.505	10.0764
27.51	10.2955	27.51	10.0326
27.515	10.3287	27.515	9.99969
27.52	10.3537	27.52	9.975
27.525	10.3725	27.525	9.95645
27.53	10.3868	27.53	9.94251
27.535	10.3975	27.535	9.93203
27.54	10.4057	27.54	9.92414
27.545	10.4119	27.545	9.9182
27.55	10.4167	27.55	9.91371
27.555	10.4203	27.555	9.91032
27.56	9.79767	27.56	10.5332
27.565	10.5795	27.565	9.75162
27.57	9.91726	27.57	10.4142
27.575	10.4309	27.575	9.9008
27.58	10.4343	27.58	9.89762
27.585	10.437	27.585	9.89522
27.59	10.4391	27.59	9.89338
27.595	10.4407	27.595	9.89198
27.6	10.4421	27.6	9.8909
27.605	10.4431	27.605	9.89007
27.61	10.4441	27.61	9.88941
27.615	10.4448	27.615	9.88889
27.62	10.4455	27.62	9.88848
27.625	10.4461	27.625	9.88814
27.63	10.4466	27.63	9.88786
27.635	10.4471	27.635	9.88762
27.64	10.4476	27.64	9.88742
27.645	9.82254	27.645	10.5127
27.65	9.97712	27.65	10.3584
27.655	10.0931	27.655	10.2426
27.66	10.1803	27.66	10.1558
27.665	10.2457	27.665	10.0906
27.67	10.2948	27.67	10.0417
27.675	10.3318	27.675	10.005
27.68	10.3596	27.68	9.97746
27.685	10.7675	27.685	9.56982
27.69	10.3047	27.69	10.0329
27.695	10.3395	27.695	9.99828
27.7	10.3658	27.7	9.97231
27.705	10.7725	27.705	9.56585
27.71	10.6957	27.71	9.64285
27.715	10.6383	27.715	9.70058
27.72	9.96977	27.72	10.3693
27.725	10.0918	27.725	10.2476
27.73	10.1833	27.73	10.1563
27.735	10.2521	27.735	10.0877
27.74	8.6384	27.74	8.37092
27.745	9.07907	27.745	8.73416
27.75	9.40964	27.75	9.00655
27.755	9.65764	27.755	9.21079
27.76	9.84371	27.76	9.36393
27.765	9.98333	27.765	9.47874
27.77	10.0881	27.77	9.56481
27.775	10.1668	27.775	9.62931
27.78	10.2258	27.78	9.67764
27.785	10.2702	27.785	9.71385
27.79	10.3035	27.79	9.74096
27.795	10.3286	27.795	9.76125
27.8	9.72203	27.8	10.4019
27.805	9.89042	27.805	10.2591
27.81	10.0168	27.81	10.1519
27.815	10.1116	27.815	10.0715
27.82	10.1828	27.82	10.0111
27.825	10.2363	27.825	9.96583
27.83	10.2765	27.83	9.93181
27.835	10.3066	27.835	9.90624
27.84	10.3294	27.84	9.88703
27.845	10.3465	27.845	9.87258
27.85	10.3594	27.85	9.86169
27.855	10.3691	27.855	9.85348
27.86	10.3765	27.86	9.84729
27.865	10.3821	27.865	9.8426
27.87	10.3864	27.87	9.83903
27.875	10.0027	27.875	10.2233
27.88	10.0969	27.88	10.1295
27.885	9.54208	27.885	10.6847
27.89	9.74934	27.89	10.4777
27.895	9.90485	27.895	10.3224
27.9	10.0215	27.9	10.2059
27.905	10.1091	27.905	10.1185
27.91	10.1749	27.91	10.0529
27.915	10.2243	27.915	10.0037
27.92	10.2614	27.92	9.96672
27.925	10.2893	27.925	9.93895
27.93	10.3103	27.93	9.91808
27.935	10.3261	27.935	9.90238
27.94	10.338	27.94	9.89057
27.945	10.3471	27.945	9.88166
27.95	10.7408	27.95	9.488
27.955	10.2674	27.955	9.96152
27.96	10.2943	27.96	9.93475
27.965	10.076	27.965	10.1532
27.97	10.1537	27.97	10.0755
27.975	10.2121	27.975	10.0173
27.98	10.2559	27.98	9.97352
27.985	10.2889	27.985	9.94067
27.99	10.3137	27.99	9.91599
27.995	10.3323	27.995	9.89744
28	10.3464	28	9.88349
28.005	10.357	28.005	9.87298
28.01	10.365	28.01	9.86506
28.015	10.3711	28.015	9.85908
28.02	10.3757	28.02	9.85455
28.025	10.3793	28.025	9.85111
28.03	10.382	28.03	9.84849
28.035	10.3841	28.035	9.84649
28.04	10.3857	28.04	9.84494
28.045	10.387	28.045	9.84374
28.05	10.3881	28.05	9.8428
28.055	12.0543	28.055	11.5074
28.06	11.6532	28.06	11.105
28.065	11.3525	28.065	10.8032
28.07	11.127	28.07	10.5768
28.075	10.958	28.075	10.4069
28.08	10.8313	28.08	10.2796
28.085	10.7363	28.085	10.184
28.09	10.6652	28.09	10.1123
28.095	10.612	28.095	10.0585
28.1	10.5721	28.1	10.0181
28.105	9.91686	28.105	10.6133
28.11	10.4357	28.11	10.0495
28.115	10.0561	28.115	10.3954
28.12	10.5403	28.12	9.88595
28.125	10.1347	28.125	10.2727
28.13	10.5995	28.13	9.79391
28.135	10.5662	28.135	9.81666
28.14	10.5414	28.14	9.83371
28.145	10.5228	28.145	9.84647
28.15	10.509	28.15	9.85603
28.155	10.4987	28.155	9.86317
28.16	10.4911	28.16	9.8685
28.165	10.4854	28.165	9.87249
28.17	8.81589	28.17	8.21005
28.175	9.2147	28.175	8.61408
28.18	9.51387	28.18	8.91706
28.185	9.73831	28.185	9.14426
28.19	9.90671	28.19	9.31461
28.195	10.0331	28.195	9.44234
28.2	10.1279	28.2	9.53809
28.205	10.1991	28.205	9.60987
28.21	10.2526	28.21	9.66366
28.215	10.2927	28.215	9.70396
28.22	10.3229	28.22	9.73415
28.225	10.3456	28.225	9.75675
28.23	10.3627	28.23	9.77366
28.235	10.3756	28.235	9.7863
28.24	10.3853	28.24	9.79574
28.245	10.3927	28.245	9.80278
28.25	10.3983	28.25	9.80802
28.255	10.4026	28.255	9.81191
28.26	10.4058	28.26	9.81479
28.265	10.4083	28.265	9.81691
28.27	10.4103	28.27	9.81845
28.275	10.4118	28.275	9.81958
28.28	10.413	28.28	9.82037
28.285	10.414	28.285	9.82093
28.29	10.4148	28.29	9.82131
28.295	10.4155	28.295	9.82156
28.3	10.416	28.3	9.8217
28.305	10.4165	28.305	9.82177
28.31	10.4169	28.31	9.82178
28.315	10.4173	28.315	9.82174
28.32	10.4177	28.32	9.82168
28.325	10.418	28.325	9.82159
28.33	10.4183	28.33	9.82148
28.335	10.4186	28.335	9.82136
28.34	10.4189	28.34	9.82123
28.345	10.4192	28.345	9.82109
28.35	10.4195	28.35	9.82095
28.355	10.4198	28.355	9.8208
28.36	10.4201	28.36	9.82065
28.365	10.4203	28.365	9.82049
28.37	10.4206	28.37	9.82034
28.375	10.4209	28.375	9.82018
28.38	10.4211	28.38	9.82002
28.385	8.756	28.385	8.15446
28.39	9.15809	28.39	8.55613
28.395	9.4597	28.395	8.85732
28.4	9.06048	28.4	9.70863
28.405	10.0099	28.405	9.09831
28.41	9.47319	28.41	9.88926
28.415	9.93254	28.415	9.6206
28.42	10.4226	28.42	9.27351
28.425	10.0215	28.425	9.78195
28.43	9.47699	28.43	10.4068
28.435	9.69196	28.435	10.2522
28.44	9.85324	28.44	10.1361
28.445	9.97424	28.445	10.049
28.45	10.065	28.45	9.98361
28.455	10.1332	28.455	9.93451
28.46	10.1843	28.46	9.89763
28.465	10.2227	28.465	9.86991
28.47	10.2516	28.47	9.84906
28.475	10.2733	28.475	9.83337
28.48	10.2896	28.48	9.82154
28.485	10.3019	28.485	9.8126
28.49	10.3111	28.49	9.80585
28.495	10.3181	28.495	9.80072
28.5	10.3234	28.5	9.79682
28.505	10.3274	28.505	9.79383
28.51	10.3305	28.51	9.79153
28.515	10.3328	28.515	9.78975
28.52	10.3346	28.52	9.78836
28.525	10.336	28.525	9.78725
28.53	10.3371	28.53	9.78636
28.535	9.951	28.535	10.1726
28.54	10.0434	28.54	10.0803
28.545	10.1127	28.545	10.0111
28.55	10.1647	28.55	9.95908
28.555	10.2038	28.555	9.92002
28.56	10.2331	28.56	9.89067
28.565	10.2552	28.565	9.8686
28.57	10.2717	28.57	9.85199
28.575	10.2842	28.575	9.83947
28.58	10.2936	28.58	9.83002
28.585	10.3007	28.585	9.82288
28.59	10.3061	28.59	9.81746
28.595	10.3102	28.595	9.81334
28.6	10.3133	28.6	9.81019
28.605	10.3157	28.605	9.80777
28.61	10.943	28.61	9.18042
28.615	10.7902	28.615	9.33312
28.62	10.6757	28.62	9.44758
28.625	10.5899	28.625	9.53337
28.63	10.5255	28.63	9.59765
28.635	10.4773	28.635	9.6458
28.64	12.1066	28.64	11.3473
28.645	11.6778	28.645	10.9724
28.65	11.3562	28.65	10.6912
28.655	11.1151	28.655	10.4803
28.66	10.9343	28.66	10.3221
28.665	10.7988	28.665	10.2034
28.67	10.6972	28.67	10.1143
28.675	10.6211	28.675	10.0474
28.68	10.5641	28.68	9.99727
28.685	10.5214	28.685	9.95959
28.69	10.4894	28.69	9.9313
28.695	10.4655	28.695	9.91004
28.7	10.0607	28.7	10.281
28.705	10.1391	28.705	10.1773
28.71	10.1979	28.71	10.0995
28.715	10.242	28.715	10.0411
28.72	10.2752	28.72	9.99728
28.725	10.3002	28.725	9.96436
28.73	10.319	28.73	9.93963
28.735	10.3331	28.735	9.92105
28.74	10.3438	28.74	9.90707
28.745	10.3519	28.745	9.89654
28.75	10.358	28.75	9.88861
28.755	10.3627	28.755	9.88262
28.76	10.3663	28.76	9.87808
28.765	10.369	28.765	9.87464
28.77	10.3711	28.77	9.87202
28.775	10.3728	28.775	9.87001
28.78	10.3741	28.78	9.86847
28.785	9.98817	28.785	10.2542
28.79	10.4676	28.79	9.77468
28.795	10.4454	28.795	9.79684
28.8	10.0419	28.8	10.2004
28.805	10.1212	28.805	10.1211
28.81	10.1807	28.81	10.0616
28.815	10.2254	28.815	10.017
28.82	10.8845	28.82	9.35798
28.825	10.7556	28.825	9.48695
28.83	10.659	28.83	9.58364
28.835	10.5866	28.835	9.65611
28.84	10.5324	28.84	9.71043
28.845	10.4918	28.845	9.75112
28.85	10.4614	28.85	9.7816
28.855	10.4386	28.855	9.80442
28.86	10.4217	28.86	9.8215
28.865	10.0221	28.865	10.2212
28.87	10.1043	28.87	10.1391
28.875	10.166	28.875	10.0774
28.88	10.2124	28.88	10.0312
28.885	10.2472	28.885	9.99644
28.89	10.2734	28.89	9.97034
28.895	10.2932	28.895	9.95073
28.9	10.308	28.9	9.93597
28.905	10.3192	28.905	9.92487
28.91	10.3277	28.91	9.9165
28.915	10.3341	28.915	9.91018
28.92	10.339	28.92	9.9054
28.925	9.95577	28.925	10.2887
28.93	10.0503	28.93	10.1943
28.935	10.1212	28.935	10.1234
28.94	10.1745	28.94	10.0703
28.945	10.2146	28.945	10.0303
28.95	10.2447	28.95	10.0003
28.955	10.2673	28.955	9.97782
28.96	10.2843	28.96	9.96088
28.965	10.2972	28.965	9.94813
28.97	8.64148	28.97	8.27313
28.975	9.05065	28.975	8.66772
28.98	9.35758	28.98	8.96359
28.985	9.58782	28.985	9.18544
28.99	9.76055	28.99	9.35177
28.995	9.5032	28.995	9.8634
29	10.079	29	9.47825
29.005	10.1291	29.005	9.57119
29.01	9.77976	29.01	10.0278
29.015	10.2866	29.015	9.60136
29.02	9.89798	29.02	10.0503
29.025	10.3754	29.025	9.61811
29.03	9.96465	29.03	10.0627
29.035	10.0385	29.035	10.0143
29.04	10.094	29.04	9.97787
29.045	10.1356	29.045	9.9505
29.05	10.1669	29.05	9.92992
29.055	10.1904	29.055	9.91442
29.06	10.2081	29.06	9.90273
29.065	10.2214	29.065	9.89391
29.07	10.2314	29.07	9.88723
29.075	10.239	29.075	9.88216
29.08	10.2447	29.08	9.8783
29.085	10.249	29.085	9.87534
29.09	10.2523	29.09	9.87306
29.095	10.2548	29.095	9.87129
29.1	10.2568	29.1	9.86991
29.105	10.2583	29.105	9.86881
29.11	10.2595	29.11	9.86792
29.115	10.2604	29.115	9.86719
29.12	10.2611	29.12	9.86659
29.125	10.2617	29.125	9.86608
29.13	10.2622	29.13	9.86563
29.135	11.9281	29.135	11.5306
29.14	11.5266	29.14	11.1284
29.145	11.2256	29.145	10.8268
29.15	10.9999	29.15	10.6005
29.155	11.4561	29.155	9.80522
29.16	11.1751	29.16	9.83202
29.165	10.9645	29.165	9.85207
29.17	10.8065	29.17	9.86707
29.175	10.6881	29.175	9.87828
29.18	10.5994	29.18	9.88664
29.185	10.9199	29.185	9.50592
29.19	10.3915	29.19	9.98915
29.195	10.3771	29.195	9.96967
29.2	10.3664	29.2	9.95501
29.205	10.3585	29.205	9.94398
29.21	10.3526	29.21	9.93566
29.215	10.3482	29.215	9.92938
29.22	10.345	29.22	9.92463
29.225	10.3427	29.225	9.92102
29.23	10.341	29.23	9.91828
29.235	10.3398	29.235	9.91617
29.24	10.339	29.24	9.91455
29.245	10.3384	29.245	9.9133
29.25	10.3381	29.25	9.91231
29.255	10.3379	29.255	9.91153
29.26	10.3378	29.26	9.9109
29.265	10.3378	29.265	9.91039
29.27	10.3379	29.27	9.90996
29.275	10.338	29.275	9.9096
29.28	10.3382	29.28	9.90929
29.285	10.3384	29.285	9.90901
29.29	10.3386	29.29	9.90876
29.295	10.3388	29.295	9.90853
29.3	9.95208	29.3	10.2953
29.305	10.044	29.305	10.2034
29.31	10.113	29.31	10.1345
29.315	10.1648	29.315	10.0827
29.32	10.2037	29.32	10.0439
29.325	10.233	29.325	10.0147
29.33	10.255	29.33	9.99276
29.335	10.2716	29.335	9.97627
29.34	8.61868	29.34	8.29847
29.345	8.643	29.345	9.07789
29.35	9.04316	29.35	9.28053
29.355	9.34333	29.355	9.43245
29.36	9.5685	29.36	9.54633
29.365	9.73743	29.365	9.63168
29.37	9.86417	29.37	9.69563
29.375	9.95928	29.375	9.74353
29.38	10.0307	29.38	9.77939
29.385	10.0842	29.385	9.80623
29.39	10.1245	29.39	9.82629
29.395	10.1547	29.395	9.84128
29.4	10.1774	29.4	9.85246
29.405	10.1945	29.405	9.86078
29.41	10.2074	29.41	9.86696
29.415	10.2171	29.415	9.87154
29.42	10.2244	29.42	9.87491
29.425	10.2299	29.425	9.87737
29.43	10.2341	29.43	9.87916
29.435	10.2373	29.435	9.88044
29.44	10.2398	29.44	9.88134
29.445	10.2417	29.445	9.88195
29.45	10.2431	29.45	9.88235
29.455	10.2443	29.455	9.88258
29.46	10.2452	29.46	9.8827
29.465	10.2459	29.465	9.88272
29.47	10.2465	29.47	9.88268
29.475	10.247	29.475	9.88259
29.48	10.2474	29.48	9.88246
29.485	10.2478	29.485	9.8823
29.49	10.2481	29.49	9.88212
29.495	10.2484	29.495	9.88192
29.5	10.2487	29.5	9.88171
29.505	9.62344	29.505	10.507
29.51	9.77784	29.51	10.3526
29.515	9.89368	29.515	10.2367
29.52	9.98062	29.52	10.1498
29.525	10.0459	29.525	10.0845
29.53	10.0948	29.53	10.0355
29.535	10.1316	29.535	9.99868
29.54	10.1593	29.54	9.971
29.545	10.18	29.545	9.95018
29.55	10.1957	29.55	9.93451
29.555	10.2074	29.555	9.92269
29.56	10.2163	29.56	9.91377
29.565	10.223	29.565	9.90702
29.57	10.2281	29.57	9.90189
29.575	11.8973	29.575	11.5634
29.58	11.4985	29.58	11.1586
29.585	11.1994	29.585	10.8549
29.59	10.9751	29.59	10.6271
29.595	10.807	29.595	10.4563
29.6	11.0679	29.6	9.94112
29.605	10.8818	29.605	9.93658
29.61	10.7423	29.61	9.93314
29.615	10.6377	29.615	9.93052
29.62	10.5593	29.62	9.92851
29.625	10.5006	29.625	9.92696
29.63	10.4567	29.63	9.92576
29.635	10.8107	29.635	9.53787
29.64	10.6945	29.64	9.62877
29.645	10.6073	29.645	9.69691
29.65	10.542	29.65	9.74797
29.655	10.4931	29.655	9.78623
29.66	10.4565	29.66	9.81488
29.665	10.4292	29.665	9.83633
29.67	10.4087	29.67	9.85237
29.675	10.3934	29.675	9.86436
29.68	10.382	29.68	9.87331
29.685	10.7605	29.685	9.49304
29.69	10.6625	29.69	9.58966
29.695	10.5891	29.695	9.66208
29.7	10.5341	29.7	9.71636
29.705	10.493	29.705	9.75702
29.71	10.4622	29.71	9.78748
29.715	10.4391	29.715	9.81028
29.72	10.4219	29.72	9.82734
29.725	10.4091	29.725	9.8401
29.73	10.3995	29.73	9.84962
29.735	10.3924	29.735	9.85672
29.74	10.3871	29.74	9.86201
29.745	10.3832	29.745	9.86593
29.75	10.3804	29.75	9.86883
29.755	10.3783	29.755	9.87096
29.76	10.3768	29.76	9.87252
29.765	10.3758	29.765	9.87365
29.77	10.3751	29.77	9.87446
29.775	10.3746	29.775	9.87502
29.78	10.3743	29.78	9.8754
29.785	10.3742	29.785	9.87564
29.79	10.3741	29.79	9.87578
29.795	10.3742	29.795	9.87585
29.8	10.3743	29.8	9.87586
29.805	10.3744	29.805	9.87582
29.81	10.3746	29.81	9.87575
29.815	10.3748	29.815	9.87566
29.82	10.375	29.82	9.87555
29.825	10.3752	29.825	9.87542
29.83	10.3754	29.83	9.87529
29.835	10.3757	29.835	9.87515
29.84	10.3759	29.84	9.875
29.845	10.3762	29.845	9.87485
29.85	10.3764	29.85	9.87469
29.855	10.3767	29.855	9.87453
29.86	9.75149	29.86	10.4999
29.865	10.5314	29.865	9.72005
29.87	9.86763	29.87	10.3839
29.875	9.99315	29.875	10.2585
29.88	10.0874	29.88	10.1644
29.885	10.1581	29.885	10.0938
29.89	10.2112	29.89	10.0408
29.895	10.2511	29.895	10.001
29.9	10.2811	29.9	9.97109
29.905	10.3036	29.905	9.94863
29.91	8.65521	29.91	8.26635
29.915	9.06984	29.915	8.65548
29.92	9.38086	29.92	8.94726
29.925	9.61418	29.925	9.16604
29.93	9.78921	29.93	9.33007
29.935	9.92052	29.935	9.45302
29.94	9.63211	29.94	9.93213
29.945	9.79772	29.945	9.90954
29.95	9.92197	29.95	9.89253
29.955	10.0152	29.955	9.87972
29.96	10.0852	29.96	9.87005
29.965	10.1377	29.965	9.86273
29.97	10.1771	29.97	9.85719
29.975	10.2068	29.975	9.85297
29.98	10.229	29.98	9.84975
29.985	10.2458	29.985	9.84727
29.99	10.2584	29.99	9.84536
29.995	10.2679	29.995	9.84386
30	1.14002	30	-7.32089
30.005	1.12973	30.005	-7.34104
30.01	1.11814	30.01	-7.361
30.015	1.10557	30.015	-7.38084
30.02	0.705313	30.02	-7.01363
30.025	0.783105	30.025	-7.12494
30.03	0.837569	30.03	-7.21329
30.035	0.249056	30.035	-6.65893
30.04	0.427063	30.04	-6.87129
30.045	0.556687	30.045	-7.03542
30.05	2.31542	30.05	-5.49797
30.055	1.97972	30.055	-6.00062
30.06	2.11102	30.06	-6.7694
30.065	1.19829	30.065	-6.34347
30.07	2.79855	30.07	-4.98674
30.075	2.34401	30.075	-5.6249
30.08	1.61232	30.08	-5.7214
30.085	0.816084	30.085	-5.55497
30.09	2.50373	30.09	-4.39285
30.095	2.11475	30.095	-5.17695
30.1	1.81919	30.1	-5.76982
30.105	3.25909	30.105	-4.55387
30.11	3.33729	30.11	-2.61976
30.115	2.74639	30.115	-3.82997
30.12	2.68638	30.12	-5.12934
30.125	3.29563	30.125	-3.43587
30.13	4.38658	30.13	-2.77929
30.135	3.55014	30.135	-3.94246
30.14	4.58446	30.14	-3.15416
30.145	3.0801	30.145	-3.59305
30.15	2.57136	30.15	-4.55019
30.155	6.16984	30.155	0.73587
30.16	4.91749	30.16	-1.26204
30.165	5.63994	30.165	-1.09972
30.17	5.56715	30.17	-0.342618
30.175	6.14669	30.175	-0.388162
30.18	6.59223	30.18	-0.412399
30.185	6.31181	30.185	0.204844
30.19	6.73569	30.19	0.0544628
30.195	5.39914	30.195	-1.71374
30.2	7.72396	30.2	0.286376
30.205	5.14984	30.205	-0.507381
30.21	5.88625	30.21	-0.446926
30.215	9.39341	30.215	3.32619
30.22	8.48943	30.22	3.10796
30.225	8.4458	30.225	2.33112
30.23	11.755	30.23	5.08943
30.235	8.65531	30.235	2.82664
30.24	8.22894	30.24	2.55431
30.245	11.633	30.245	5.30921
30.25	9.88305	30.25	5.09629
30.255	9.58697	30.255	3.94176
30.26	13.5985	30.26	8.85625
30.265	12.4295	30.265	6.83609
30.27	11.5641	30.27	5.33138
30.275	12.8579	30.275	8.94343
30.28	11.9248	30.28	6.97417
30.285	10.8496	30.285	5.89467
30.29	12.9934	30.29	8.81839
30.295	13.7401	30.295	8.62164
30.3	14.2053	30.3	11.9509
30.305	13.0329	30.305	9.38788
30.31	11.7783	30.31	7.86326
30.315	15.0662	30.315	12.5057
30.32	13.3499	30.32	10.2869
30.325	12.0693	30.325	8.63877
30.33	13.2855	30.33	11.9102
30.335	13.7136	30.335	11.5977
30.34	12.3906	30.34	9.72852
30.345	13.5751	30.345	12.8343
30.35	13.5926	30.35	12.7846
30.355	12.3437	30.355	10.7307
30.36	15.7537	30.36	18.1897
30.365	13.619	30.365	15.2924
30.37	12.4069	30.37	12.7538
30.375	12.5139	30.375	16.5186
30.38	11.2038	30.38	14.1525
30.385	10.2233	30.385	12.3993
30.39	12.9384	30.39	17.6499
30.395	11.5516	30.395	15.1292
30.4	11.9098	30.4	18.5258
30.405	11.4412	30.405	18.5615
30.41	11.0717	30.41	15.3284
30.415	10.5572	30.415	19.8265
30.42	9.78639	30.42	17.0056
30.425	10.7243	30.425	23.3903
30.43	9.52734	30.43	20.1981
30.435	9.01394	30.435	17.444
30.44	9.64049	30.44	21.0527
30.445	8.71539	30.445	18.5751
30.45	8.40599	30.45	16.357
30.455	8.1732	30.455	21.3803
30.46	7.99578	30.46	18.5716
30.465	7.47841	30.465	16.8741
30.47	9.37555	30.47	23.3329
30.475	7.89096	30.475	21.204
30.48	7.78541	30.48	18.6243
30.485	9.1051	30.485	21.9772
30.49	8.07977	30.49	19.9284
30.495	5.88456	30.495	16.5124
30.5	7.43129	30.5	20.7457
30.505	7.4432	30.505	18.4905
30.51	6.9472	30.51	20.6601
30.515	8.11793	30.515	20.7988
30.52	6.93145	30.52	16.3603
30.525	8.88272	30.525	23.5098
30.53	6.88705	30.53	19.1205
30.535	8.73716	30.535	22.4705
30.54	6.78911	30.54	18.41
30.545	6.74358	30.545	17.2766
30.55	7.60696	30.55	18.8855
30.555	7.99889	30.555	17.0718
30.56	6.3972	30.56	14.3022
30.565	7.36255	30.565	16.7168
30.57	6.96699	30.57	16.3714
30.575	6.50343	30.575	12.9744
30.58	8.64609	30.58	17.9257
30.585	8.97794	30.585	16.3368
30.59	7.42939	30.59	13.6378
30.595	10.5425	30.595	17.3285
30.6	8.4043	30.6	14.6615
30.605	11.7036	30.605	17.7478
30.61	10.3356	30.61	13.9969
30.615	11.3036	30.615	15.8488
30.62	11.1194	30.62	14.8725
30.625	12.96	30.625	15.5187
30.63	11.5337	30.63	12.204
30.635	10.3278	30.635	9.85171
30.64	12.1913	30.64	11.9787
30.645	10.8752	30.645	9.68166
30.65	11.0808	30.65	10.0946
30.655	12.3302	30.655	9.33568
30.66	11.8603	30.66	10.2001
30.665	13.6106	30.665	8.77252
30.67	11.6146	30.67	7.70645
30.675	10.9917	30.675	6.0305
30.68	11.6323	30.68	6.9944
30.685	10.8165	30.685	5.70952
30.69	11.7021	30.69	6.57692
30.695	11.5552	30.695	4.73466
30.7	11.4871	30.7	6.63952
30.705	11.0994	30.705	5.10079
30.71	9.52773	30.71	5.22557
30.715	8.97952	30.715	4.68644
30.72	10.4478	30.72	5.73135
30.725	10.1123	30.725	4.64775
30.73	11.1516	30.73	5.87291
30.735	10.3457	30.735	5.0732
30.74	9.70918	30.74	4.50354
30.745	9.23907	30.745	4.06692
30.75	10.1404	30.75	5.81423
30.755	9.61619	30.755	5.02117
30.76	10.1801	30.76	6.79801
30.765	9.68377	30.765	5.74619
30.77	9.31884	30.77	4.94799
30.775	9.76374	30.775	6.95954
30.78	9.18098	30.78	6.08091
30.785	8.27707	30.785	5.88682
30.79	8.33071	30.79	5.00773
30.795	9.65674	30.795	6.39145
30.8	8.674	30.8	6.10281
30.805	7.65611	30.805	6.16525
30.81	9.09352	30.81	7.34013
30.815	7.99845	30.815	7.09076
30.82	7.80272	30.82	6.27629
30.825	8.36947	30.825	8.2808
30.83	7.4861	30.83	7.78899
30.835	6.88197	30.835	7.35991
30.84	7.01493	30.84	6.45019
30.845	8.15688	30.845	8.05465
30.85	7.7495	30.85	7.21824
30.855	7.06221	30.855	6.97089
30.86	7.17233	30.86	6.15799
30.865	7.58154	30.865	8.55069
30.87	6.96191	30.87	7.96821
30.875	7.12278	30.875	6.904
30.88	8.04714	30.88	8.63116
30.885	7.56959	30.885	7.79384
30.89	7.98259	30.89	6.39298
30.895	8.47566	30.895	8.48808
30.9	7.67753	30.9	7.92387
30.905	7.70455	30.905	6.87341
30.91	8.29003	30.91	8.84947
30.915	7.56121	30.915	8.196
30.92	7.25329	30.92	7.46556
30.925	7.96943	30.925	9.2998
30.93	7.96411	30.93	7.91452
30.935	7.9625	30.935	6.87157
30.94	8.37811	30.94	9.00173
30.945	8.28786	30.945	7.69795
30.95	7.59708	30.95	7.34163
30.955	8.02898	30.955	9.45364
30.96	7.03949	30.96	9.04775
30.965	7.30491	30.965	7.73426
30.97	8.06922	30.97	9.51316
30.975	8.10008	30.975	8.08644
30.98	9.79103	30.98	8.67789
30.985	7.92129	30.985	8.95619
30.99	7.38389	30.99	8.29855
30.995	9.27194	30.995	8.84357
31	7.55004	31	9.08707
31.005	9.41441	31.005	9.44328
31.01	8.53877	31.01	8.68119
31.015	7.64376	31.015	8.34653
31.02	8.87956	31.02	9.51789
31.025	9.34411	31.025	10.8864
31.03	9.15021	31.03	9.15198
31.035	9.00728	31.035	7.84738
31.04	8.83993	31.04	10.2586
31.045	8.79539	31.045	8.68296
31.05	8.76449	31.05	7.49748
31.055	8.91971	31.055	9.7595
31.06	8.25023	31.06	8.93891
31.065	8.31127	31.065	11.0899
31.07	10.1034	31.07	10.9845
31.075	9.79923	31.075	9.25095
31.08	8.47106	31.08	9.04961
31.085	10.249	31.085	9.45423
31.09	9.93406	31.09	8.10313
31.095	9.63781	31.095	10.4796
31.1	9.49666	31.1	8.878
31.105	9.39337	31.105	7.67318
31.11	8.06752	31.11	8.01688
31.115	8.32224	31.115	7.02448
31.12	10.1812	31.12	7.94193
31.125	8.4377	31.125	8.46501
31.13	8.62058	31.13	7.36575
31.135	9.08463	31.135	9.54417
31.14	9.13187	31.14	8.17601
31.145	8.78295	31.145	7.53325
31.15	9.46856	31.15	9.43367
31.155	9.44058	31.155	8.09844
31.16	8.55818	31.16	7.95747
31.165	9.80359	31.165	9.27438
31.17	9.3257	31.17	8.37131
31.175	8.48775	31.175	8.17261
31.18	8.72659	31.18	7.15538
31.185	8.90834	31.185	6.38892
31.19	9.22317	31.19	8.96543
31.195	9.29898	31.195	7.75546
31.2	8.97153	31.2	7.23142
31.205	10.2988	31.205	8.59548
31.21	9.74181	31.21	7.86827
31.215	9.08313	31.215	7.563
31.22	8.35102	31.22	7.57131
31.225	8.28231	31.225	7.09632
31.23	8.61528	31.23	6.35474
31.235	8.24217	31.235	6.42055
31.24	9.8667	31.24	7.89551
31.245	9.81872	31.245	6.96551
31.25	7.67042	31.25	8.37953
31.255	8.17306	31.255	7.32537
31.26	7.30174	31.26	7.78226
31.265	7.89743	31.265	6.87494
31.27	9.6253	31.27	8.24334
31.275	8.79082	31.275	8.09747
31.28	8.64536	31.28	7.50692
31.285	7.66982	31.285	7.92967
31.29	8.18737	31.29	6.99678
31.295	8.19124	31.295	6.68063
31.3	7.56624	31.3	7.07067
31.305	8.10527	31.305	6.35464
31.31	9.79065	31.31	7.86655
31.315	8.29884	31.315	8.45383
31.32	8.28364	31.32	7.78989
31.325	8.26984	31.325	7.29362
31.33	8.01853	31.33	7.16165
31.335	8.06903	31.335	6.82296
31.34	8.49144	31.34	6.18369
31.345	8.83839	31.345	9.00416
31.35	8.69186	31.35	8.22379
31.355	7.09005	31.355	9.12973
31.36	7.99972	31.36	7.69748
31.365	7.81776	31.365	7.48682
31.37	7.92029	31.37	7.08914
31.375	7.99477	31.375	6.7926
31.38	8.04821	31.38	6.57193
31.385	7.22187	31.385	7.27217
31.39	9.12977	31.39	8.5998
31.395	7.65644	31.395	9.19734
31.4	8.42107	31.4	7.77522
31.405	8.36887	31.405	7.33366
31.41	8.08878	31.41	7.24278
31.415	8.11772	31.415	6.93497
31.42	8.13701	31.42	6.70587
31.425	8.14908	31.425	6.5358
31.43	8.15572	31.43	6.41001
31.435	8.15829	31.435	6.31743
31.44	8.15781	31.44	6.24976
31.445	8.15504	31.445	6.20076
31.45	8.15055	31.45	6.16578
31.455	9.18469	31.455	8.43219
31.46	8.93028	31.46	7.85961
31.465	8.73707	31.465	7.43197
31.47	7.96429	31.47	7.7385
31.475	8.00558	31.475	7.34692
31.48	6.78318	31.48	8.30599
31.485	7.73601	31.485	7.15505
31.49	7.82495	31.49	6.91692
31.495	7.26378	31.495	7.3656
31.5	7.46376	31.5	7.08062
31.505	8.23682	31.505	6.24321
31.51	7.56546	31.51	6.86571
31.515	7.29585	31.515	7.09805
31.52	8.09859	31.52	6.26676
31.525	9.11487	31.525	8.55924
31.53	8.84707	31.53	8.00626
31.535	8.63501	31.535	7.60217
