time (s) - Front Motor	Motor Voltage (V) - Front Motor	time (s) - Back Motor	Motor Voltage (V) - Back Motor
0	521.344	0	522.595
0.005	395.763	0.005	396.705
0.01	301.967	0.01	301.905
0.015	231.243	0.015	231.19
0.02	176.565	0.02	179.796
0.025	139.093	0.025	141.052
0.03	109.101	0.03	110.589
0.035	86.61	0.035	87.7453
0.04	69.359	0.04	71.0034
0.045	57.432	0.045	57.4435
0.05	47.8672	0.05	47.9006
0.055	40.9361	0.055	40.5088
0.06	35.887	0.06	34.8232
0.065	31.7223	0.065	30.9448
0.07	28.2156	0.07	28.4267
0.075	26.9837	0.075	25.1477
0.08	25.0584	0.08	23.6974
0.085	23.6184	0.085	22.6135
0.09	20.8768	0.09	20.1391
0.095	21.1007	0.095	19.3124
0.1	20.6493	0.1	19.3196
0.105	20.3145	0.105	19.3287
0.11	20.6927	0.11	18.7139
0.115	20.3569	0.115	18.8799
0.12	18.4435	0.12	17.3428
0.125	19.2886	0.125	17.2192
0.13	19.303	0.13	17.7536
0.135	19.3175	0.135	18.1581
0.14	19.9578	0.14	17.8399
0.145	19.8184	0.145	18.2282
0.15	18.6779	0.15	16.2324
0.155	18.8538	0.155	17.0135
0.16	19.3765	0.16	17.2162
0.165	18.3505	0.165	15.4629
0.17	18.6125	0.17	16.4259
0.175	17.7727	0.175	14.861
0.18	18.7998	0.18	15.3397
0.185	17.2852	0.185	14.6604
0.19	18.4293	0.19	15.18
0.195	18.6679	0.195	16.1967
0.2	17.8106	0.2	14.6721
0.205	18.199	0.205	15.8065
0.21	17.4541	0.21	14.3701
0.215	17.9267	0.215	15.5706
0.22	17.6319	0.22	13.7969
0.225	18.0602	0.225	15.1263
0.23	16.3053	0.23	11.5452
0.235	15.3826	0.235	11.7459
0.24	16.9706	0.24	12.9255
0.245	16.2635	0.245	12.3847
0.25	15.9659	0.25	11.7245
0.255	16.7739	0.255	13.5071
0.26	15.3036	0.26	10.2659
0.265	16.6466	0.265	11.9998
0.27	16.2357	0.27	11.3948
0.275	15.2932	0.275	11.5533
0.28	16.8663	0.28	12.701
0.285	16.3864	0.285	11.8977
0.29	15.3922	0.29	11.9075
0.295	15.261	0.295	11.2782
0.3	14.9152	0.3	11.0315
0.305	14.8884	0.305	10.5917
0.31	14.234	0.31	10.8741
0.315	14.3575	0.315	10.4492
0.32	14.4413	0.32	10.1171
0.325	14.2566	0.325	10.0932
0.33	15.629	0.33	11.8728
0.335	12.4365	0.335	7.44362
0.34	13.9929	0.34	10.0828
0.345	11.4183	0.345	5.81819
0.35	12.1568	0.35	6.53129
0.355	12.0761	0.355	7.67804
0.36	12.6298	0.36	7.90126
0.365	12.649	0.365	8.44202
0.37	10.7452	0.37	7.41219
0.375	9.91696	0.375	5.98839
0.38	11.5629	0.38	5.93226
0.385	9.87406	0.385	5.4598
0.39	10.4853	0.39	6.50627
0.395	10.6909	0.395	7.52097
0.4	9.79365	0.4	5.97953
0.405	9.09686	0.405	4.79512
0.41	8.16343	0.41	4.26538
0.415	8.86123	0.415	5.74867
0.42	8.33301	0.42	4.55854
0.425	9.57827	0.425	5.30287
0.43	10.1158	0.43	6.23407
0.435	8.60038	0.435	5.49669
0.44	9.3415	0.44	6.34417
0.445	8.60424	0.445	4.91845
0.45	8.68016	0.45	6.49837
0.455	7.68028	0.455	5.3856
0.46	8.95346	0.46	5.80588
0.465	6.18092	0.465	3.16306
0.47	5.72309	0.47	2.80818
0.475	6.39028	0.475	4.80918
0.48	6.22062	0.48	3.6251
0.485	7.34749	0.485	4.76054
0.49	6.27378	0.49	4.17597
0.495	7.34583	0.495	5.13771
0.5	6.23096	0.5	4.42282
0.505	7.27208	0.505	5.28675
0.51	3.04168	0.51	0.92912
0.515	4.4195	0.515	2.99104
0.52	3.91566	0.52	2.71926
0.525	2.32265	0.525	0.346054
0.53	3.93451	0.53	2.33828
0.535	3.70416	0.535	1.91604
0.54	1.44926	0.54	0.296745
0.545	1.52247	0.545	0.565626
0.55	3.45429	0.55	2.16702
0.555	1.55697	0.555	0.0275098
0.56	1.12942	0.56	0.674918
0.565	2.68049	0.565	2.56518
0.57	-0.399101	0.57	-1.79202
0.575	1.22095	0.575	0.890147
0.58	1.37826	0.58	0.60312
0.585	-3.91705	0.585	-4.24592
0.59	-0.918834	0.59	-1.67111
0.595	-0.976808	0.595	-0.790058
0.6	-4.14506	0.6	-3.72107
0.605	-2.86797	0.605	-3.02417
0.61	-0.513702	0.61	-0.622354
0.615	-1.85332	0.615	-2.40351
0.62	-1.23763	0.62	-2.11336
0.625	-4.52413	0.625	-4.86451
0.63	-3.96143	0.63	-3.40746
0.635	-6.27757	0.635	-6.29377
0.64	-5.36909	0.64	-4.55634
0.645	-6.14756	0.645	-5.18014
0.65	-3.30259	0.65	-2.50024
0.655	-2.84772	0.655	-2.1693
0.66	-4.34838	0.66	-3.46622
0.665	-2.04517	0.665	-1.29127
0.67	-0.092799	0.67	0.0876977
0.675	-0.548911	0.675	-0.315795
0.68	0.359327	0.68	1.40566
0.685	2.03421	0.685	1.67561
0.69	-0.67736	0.69	-0.84325
0.695	0.190084	0.695	0.942471
0.7	-0.843549	0.7	0.607562
0.705	-0.639709	0.705	-0.679392
0.71	-1.52537	0.71	-0.662854
0.715	-0.557649	0.715	0.991524
0.72	-2.16918	0.72	-2.11985
0.725	-1.10019	0.725	-0.155456
0.73	-3.40974	0.73	-2.2605
0.735	-1.71366	0.735	-0.692115
0.74	-0.455622	0.74	0.470001
0.745	-2.6184	0.745	-2.24193
0.75	-1.1942	0.75	-0.746944
0.755	-0.140166	0.755	0.360027
0.76	0.249273	0.76	1.56291
0.765	0.909061	0.765	2.0689
0.77	0.349811	0.77	0.143184
0.775	0.94378	0.775	0.958694
0.78	1.37502	0.78	1.55594
0.785	1.29726	0.785	2.37641
0.79	-1.09878	0.79	-1.3608
0.795	-0.231627	0.795	-0.25313
0.8	0.0174466	0.8	0.950063
0.805	0.184805	0.805	1.84302
0.81	1.30328	0.81	1.49084
0.815	1.50447	0.815	1.83542
0.82	-2.46375	0.82	-0.477621
0.825	-0.7634	0.825	-0.314469
0.83	-0.125906	0.83	0.416508
0.835	0.337697	0.835	0.950063
0.84	0.283917	0.84	1.72248
0.845	1.23637	0.845	1.27973
0.85	1.31287	0.85	1.5562
0.855	1.35565	0.855	1.7488
0.86	1.37312	0.86	1.87848
0.865	-0.293806	0.865	0.29554
0.87	0.717706	0.87	0.118919
0.875	0.838379	0.875	0.594873
0.88	-1.13817	0.88	-0.341484
0.885	0.0229185	0.885	-0.415114
0.89	-1.79665	0.89	-1.14044
0.895	-1.14337	0.895	-0.430383
0.9	-2.09509	0.9	-1.81676
0.905	-1.41425	0.905	-0.979262
0.91	-0.918502	0.91	-0.366187
0.915	1.10381	0.915	1.74395
0.92	1.19329	0.92	1.42206
0.925	1.00408	0.925	1.40696
0.93	-0.431219	0.93	-0.671805
0.935	-0.253635	0.935	-0.213267
0.94	-0.135438	0.94	0.115474
0.945	-0.0618007	0.945	0.346849
0.95	2.26927	0.95	1.5451
0.955	1.72839	0.955	1.40096
0.96	1.30767	0.96	1.27763
0.965	0.977069	0.965	1.1699
0.97	1.33951	0.97	0.448363
0.975	0.972965	0.975	0.515203
0.98	-1.36941	0.98	-0.728417
0.985	0.795332	0.985	1.01942
0.99	0.511429	0.99	0.905479
0.995	0.283321	0.995	0.804664
1	1.76244	1	2.37907
1.005	1.20568	1.005	1.89361
1.01	1.39838	1.01	0.88864
1.015	2.95673	1.015	2.02122
1.02	2.0775	1.02	1.58621
1.025	1.40283	1.025	1.24452
1.03	2.93389	1.03	2.25125
1.035	2.03415	1.035	1.72181
1.04	1.34405	1.04	1.30926
1.045	3.10204	1.045	2.02427
1.05	2.13105	1.05	1.51742
1.055	1.38748	1.055	1.12177
1.06	1.43993	1.06	0.184014
1.065	2.50602	1.065	1.75382
1.07	0.599414	1.07	-1.02615
1.075	1.46012	1.075	1.19979
1.08	-0.457233	1.08	-1.23144
1.085	1.02373	1.085	0.627654
1.09	1.0936	1.09	-0.270025
1.095	0.894206	1.095	-0.722607
1.1	2.01271	1.1	0.96955
1.105	0.532248	1.105	-2.10572
1.11	1.71753	1.11	-0.106448
1.115	2.60548	1.115	1.3918
1.12	0.952054	1.12	-1.82894
1.125	2.00758	1.125	0.0611874
1.13	1.13278	1.13	-0.187858
1.135	2.75198	1.135	0.649508
1.14	3.34203	1.14	1.89954
1.145	2.1181	1.145	1.17041
1.15	3.2369	1.15	1.88622
1.155	3.69305	1.155	2.80366
1.16	3.3811	1.16	0.812637
1.165	4.17873	1.165	1.58715
1.17	4.39398	1.17	2.5486
1.175	4.5543	1.175	3.26838
1.18	4.67344	1.18	3.80691
1.185	4.10871	1.185	1.53169
1.19	4.32979	1.19	2.47998
1.195	4.49448	1.195	3.18987
1.2	5.00381	1.2	3.33402
1.205	3.9629	1.205	1.5318
1.21	4.2087	1.21	2.45296
1.215	4.3919	1.215	3.14248
1.22	5.15363	1.22	3.0328
1.225	5.48746	1.225	3.18552
1.23	4.70186	1.23	1.00276
1.235	5.14419	1.235	1.63341
1.24	5.47986	1.24	2.09995
1.245	6.36101	1.245	1.81793
1.25	6.01557	1.25	2.61019
1.255	6.14228	1.255	2.81607
1.26	6.47976	1.26	2.7255
1.265	6.10844	1.265	3.27948
1.27	6.21574	1.27	3.30665
1.275	6.53867	1.275	3.08205
1.28	6.15643	1.28	3.53551
1.285	5.86859	1.285	3.87423
1.29	6.66398	1.29	3.11448
1.295	6.25422	1.295	3.54844
1.3	6.33269	1.3	3.48559
1.305	6.00852	1.305	3.81895
1.31	8.44206	1.31	4.72057
1.315	7.61004	1.315	4.74969
1.32	7.37184	1.32	4.38322
1.325	7.43566	1.325	3.86341
1.33	7.24606	1.33	3.70853
1.335	8.38626	1.335	5.63828
1.34	8.60182	1.34	4.42094
1.345	8.38272	1.345	3.88626
1.35	9.2594	1.35	5.77259
1.355	8.8904	1.355	4.90964
1.36	8.37623	1.36	4.49745
1.365	9.89852	1.365	5.60876
1.37	8.76499	1.37	5.41334
1.375	10.5916	1.375	5.91844
1.38	9.30445	1.38	5.65023
1.385	8.96353	1.385	4.82231
1.39	9.7489	1.39	6.48877
1.395	10.9769	1.395	7.12637
1.4	9.62268	1.4	6.57571
1.405	9.2315	1.405	5.53599
1.41	10.2178	1.41	6.8051
1.415	9.06415	1.415	6.34621
1.42	9.86335	1.42	7.66622
1.425	9.04941	1.425	6.7656
1.43	8.58352	1.43	5.94338
1.435	10.1421	1.435	6.74729
1.44	10.3144	1.44	8.37376
1.445	9.41223	1.445	7.32115
1.45	8.49324	1.45	6.77193
1.455	9.70698	1.455	7.78571
1.46	9.34956	1.46	6.50992
1.465	8.45731	1.465	6.1752
1.47	10.9696	1.47	9.40222
1.475	9.93013	1.475	8.14058
1.48	9.79975	1.48	9.87394
1.485	9.05249	1.485	8.5197
1.49	9.91518	1.49	9.40973
1.495	9.14901	1.495	8.18674
1.5	9.61059	1.5	9.56217
1.505	8.92546	1.505	8.32139
1.51	9.68638	1.51	9.44496
1.515	8.98438	1.515	8.25671
1.52	9.34572	1.52	9.80664
1.525	9.76583	1.525	10.8472
1.53	9.04967	1.53	9.3553
1.535	9.63896	1.535	10.439
1.54	10.3756	1.54	10.9844
1.545	8.50261	1.545	10.5154
1.55	9.37786	1.55	11.2128
1.555	8.37476	1.555	10.092
1.56	8.89224	1.56	11.3107
1.565	8.38964	1.565	9.81206
1.57	8.51371	1.57	11.5162
1.575	9.13786	1.575	12.2907
1.58	8.57485	1.58	10.5994
1.585	8.65364	1.585	12.1591
1.59	8.59091	1.59	10.1474
1.595	7.14608	1.595	10.035
1.6	7.95562	1.6	11.3868
1.605	7.67215	1.605	9.98799
1.61	8.49601	1.61	11.2318
1.615	7.30895	1.615	10.6664
1.62	8.84434	1.62	11.1461
1.625	7.71609	1.625	10.4824
1.63	7.10281	1.63	9.75041
1.635	8.68669	1.635	10.487
1.64	7.59483	1.64	10.0161
1.645	6.62192	1.645	9.81554
1.65	8.31796	1.65	10.5689
1.655	6.9233	1.655	10.4975
1.66	6.87906	1.66	9.4409
1.665	7.22945	1.665	8.26358
1.67	6.48152	1.67	8.39002
1.675	8.20587	1.675	9.52904
1.68	7.2194	1.68	9.35999
1.685	6.47399	1.685	9.23751
1.69	8.82572	1.69	9.56438
1.695	7.68654	1.695	9.40951
1.7	6.82662	1.7	9.29767
1.705	6.80161	1.705	8.59264
1.71	8.83186	1.71	9.34442
1.715	7.693	1.715	9.26684
1.72	7.45882	1.72	8.58751
1.725	7.04133	1.725	8.31867
1.73	8.63171	1.73	9.54316
1.735	7.93177	1.735	9.05131
1.74	7.64493	1.74	8.44317
1.745	7.81346	1.745	7.60226
1.75	7.31617	1.75	7.59412
1.755	6.94278	1.755	7.58728
1.76	8.56626	1.76	9.00829
1.765	7.89116	1.765	8.66385
1.77	8.00993	1.77	7.77933
1.775	7.71387	1.775	7.49996
1.78	7.25002	1.78	7.53113
1.785	8.56714	1.785	9.21919
1.79	8.52919	1.79	8.20817
1.795	7.87708	1.795	8.07248
1.8	8.0131	1.8	7.34454
1.805	7.49147	1.805	7.42116
1.81	7.09987	1.81	7.47793
1.815	9.09668	1.815	8.55973
1.82	8.94525	1.82	7.7173
1.825	8.20805	1.825	7.70807
1.83	8.04174	1.83	7.31352
1.835	8.16028	1.835	6.77332
1.84	7.62555	1.84	6.99076
1.845	9.51503	1.845	8.19308
1.85	8.65765	1.85	8.06653
1.855	8.63976	1.855	7.34548
1.86	8.00274	1.86	7.4273
1.865	8.15012	1.865	6.86253
1.87	7.63706	1.87	7.06156
1.875	9.30427	1.875	8.48861
1.88	8.52162	1.88	8.28924
1.885	8.5598	1.885	7.51358
1.89	7.96485	1.89	7.55446
1.895	8.14381	1.895	6.959
1.9	8.04139	1.9	6.74808
1.905	9.2478	1.905	8.63651
1.91	9.12691	1.91	7.77583
1.915	8.41268	1.915	7.75297
1.92	8.5022	1.92	7.10971
1.925	7.94578	1.925	7.24991
1.93	7.52818	1.93	7.35443
1.935	7.21469	1.935	7.43219
1.94	9.27016	1.94	8.5298
1.945	8.53733	1.945	8.32478
1.95	8.37439	1.95	7.78346
1.955	8.49553	1.955	7.13324
1.96	7.96285	1.96	7.26823
1.965	8.18855	1.965	6.74339
1.97	7.73429	1.97	6.97242
1.975	7.78027	1.975	6.75663
1.98	9.72351	1.98	8.01595
1.985	8.90653	1.985	7.93223
1.99	8.29354	1.99	7.86885
1.995	8.45904	1.995	7.19524
2	7.95965	2	7.31271
2.005	7.58486	2.005	7.40021
2.01	9.5944	2.01	8.50516
2.015	8.82716	2.015	8.30568
2.02	8.877	2.02	7.53001
2.025	8.67782	2.025	7.184
2.03	8.77183	2.03	6.68031
2.035	8.21884	2.035	6.92523
2.04	9.08233	2.04	9.16068
2.045	9.0862	2.045	8.17848
2.05	8.46562	2.05	8.06453
2.055	7.99999	2.055	7.97851
2.06	8.27604	2.06	7.28796
2.065	7.85961	2.065	7.39275
2.07	9.83796	2.07	8.5107
2.075	9.04737	2.075	8.321
2.08	8.45425	2.08	8.17818
2.085	8.00923	2.085	8.07053
2.09	7.67529	2.09	7.98924
2.095	7.42465	2.095	7.92773
2.1	7.86197	2.1	7.25558
2.105	7.5665	2.105	7.37419
2.11	7.34473	2.11	7.4626
2.115	7.41675	2.115	7.28984
2.12	8.89457	2.12	9.06652
2.125	8.35189	2.125	8.74761
2.13	7.94472	2.13	8.50791
2.135	7.63918	2.135	8.3276
2.14	8.03534	2.14	7.56636
2.145	7.70904	2.145	7.61818
2.15	7.46415	2.15	7.65652
2.155	6.89338	2.155	8.07169
2.16	7.47248	2.16	7.3752
2.165	7.28338	2.165	7.47557
2.17	7.1414	2.17	7.55032
2.175	8.70015	2.175	9.27126
2.18	8.21819	2.18	8.91056
2.185	8.48205	2.185	8.01404
2.19	8.05654	2.19	7.96442
2.195	7.73727	2.195	7.92669
2.2	7.49768	2.2	7.89788
2.205	7.55638	2.205	7.63723
2.21	7.35886	2.21	7.68264
2.215	7.21059	2.215	7.71619
2.22	7.09925	2.22	7.74084
2.225	7.0156	2.225	7.75882
2.23	6.95273	2.23	7.77179
2.235	8.57084	2.235	9.4464
2.24	8.75889	2.24	8.4255
2.245	8.27654	2.245	8.2826
2.25	7.91466	2.25	8.17493
2.255	7.64313	2.255	8.09369
2.26	7.43937	2.26	8.03227
2.265	7.91191	2.265	7.36023
2.27	7.25598	2.27	7.86592
2.275	7.14579	2.275	7.86283
2.28	7.06302	2.28	7.86002
2.285	7.00083	2.285	7.85742
2.29	9.24495	2.29	8.8949
2.295	8.65378	2.295	8.6449
2.3	8.21031	2.3	8.45693
2.305	7.87761	2.305	8.31548
2.31	7.62799	2.31	8.20892
2.315	7.44067	2.315	8.12852
2.32	7.92558	2.32	7.44226
2.325	7.66588	2.325	7.55037
2.33	7.47102	2.33	7.63097
2.335	7.32478	2.335	7.69095
2.34	7.215	2.34	7.73545
2.345	7.75806	2.345	7.14288
2.35	7.54198	2.35	7.32124
2.355	9.04523	2.355	9.11993
2.36	8.52169	2.36	8.8176
2.365	8.12897	2.365	8.59039
2.37	7.83435	2.37	8.41953
2.375	7.61331	2.375	8.29092
2.38	7.83441	2.38	7.80706
2.385	8.24377	2.385	7.20009
2.39	7.92744	2.39	7.36768
2.395	7.69012	2.395	7.49291
2.4	7.51206	2.4	7.58638
2.405	7.37844	2.405	7.65602
2.41	7.27815	2.41	7.70779
2.415	8.86826	2.415	9.41155
2.42	8.40989	2.42	9.03804
2.425	8.45301	2.425	8.37053
2.43	8.34196	2.43	8.01278
2.435	8.01721	2.435	7.98544
2.44	8.16055	2.44	7.57754
2.445	7.88613	2.445	7.65304
2.45	7.29331	2.45	8.09618
2.455	7.61746	2.455	7.65927
2.46	7.47865	2.46	7.71302
2.465	7.37449	2.465	7.75289
2.47	7.29632	2.47	7.78235
2.475	7.23764	2.475	7.80401
2.48	9.48445	2.48	8.85973
2.485	9.2823	2.485	8.23652
2.49	8.7488	2.49	8.15056
2.495	8.34863	2.495	8.08567
2.5	8.04848	2.5	8.03658
2.505	8.21028	2.505	7.61239
2.51	7.94972	2.51	7.6757
2.515	7.75428	2.515	7.72275
2.52	7.60766	2.52	7.75762
2.525	7.49766	2.525	7.78335
2.53	8.04061	2.53	7.17674
2.535	7.82452	2.535	7.34463
2.54	7.66242	2.54	7.47013
2.545	7.54081	2.545	7.56383
2.55	7.83651	2.55	7.24673
2.555	7.6764	2.555	7.39035
2.56	9.22167	2.56	9.16304
2.565	9.11667	2.565	8.45431
2.57	8.65604	2.57	8.30423
2.575	8.31056	2.575	8.19126
2.58	8.05143	2.58	8.10613
2.585	7.85707	2.585	8.04188
2.59	8.09823	2.59	7.60634
2.595	7.89723	2.595	7.66114
2.6	8.37194	2.6	7.07636
2.605	8.10469	2.605	7.26064
2.61	7.90424	2.61	7.39845
2.615	7.75389	2.615	7.5014
2.62	7.64112	2.62	7.57821
2.625	7.94347	2.625	7.24846
2.63	7.78836	2.63	7.38261
2.635	9.33741	2.635	9.14821
2.64	8.84831	2.64	8.82114
2.645	8.48149	2.645	8.57544
2.65	8.59334	2.65	8.00384
2.655	8.29536	2.655	7.95662
2.66	8.07188	2.66	7.92081
2.665	7.90428	2.665	7.89357
2.67	7.77859	2.67	7.87276
2.675	7.68432	2.675	7.85676
2.68	8.00058	2.68	7.45743
2.685	7.85591	2.685	7.53941
2.69	7.74742	2.69	7.60051
2.695	7.66606	2.695	7.64595
2.7	7.60504	2.7	7.67964
2.705	7.55929	2.705	7.70453
2.71	7.52498	2.71	7.7228
2.715	8.12474	2.715	7.11064
2.72	7.95129	2.72	7.27441
2.725	7.82121	2.725	7.39685
2.73	7.72366	2.73	7.48829
2.735	7.65051	2.735	7.55648
2.74	7.59565	2.74	7.60724
2.745	9.60685	2.745	8.92337
2.75	9.08253	2.75	8.64107
2.755	9.07626	2.755	8.04204
2.76	8.68972	2.76	7.97425
2.765	8.39984	2.765	7.92305
2.77	8.18246	2.77	7.88428
2.775	8.01945	2.775	7.85484
2.78	7.89722	2.78	7.83238
2.785	7.80557	2.785	7.81518
2.79	7.73686	2.79	7.8019
2.795	7.68536	2.795	7.79158
2.8	7.64676	2.8	7.78347
2.805	7.61784	2.805	7.77702
2.81	7.59617	2.81	7.77181
2.815	7.57995	2.815	7.76754
2.82	7.56781	2.82	7.76397
2.825	7.94568	2.825	7.37397
2.83	7.4603	2.83	7.84992
2.835	7.8651	2.835	7.43771
2.84	7.78686	2.84	7.51004
2.845	7.72821	2.845	7.56392
2.85	7.68425	2.85	7.60396
2.855	8.03825	2.855	7.24668
2.86	7.92192	2.86	7.36022
2.865	7.83469	2.865	7.445
2.87	7.7693	2.87	7.50822
2.875	7.0948	2.875	8.18075
2.88	9.50311	2.88	9.10142
2.885	9.03521	2.885	8.76396
2.89	8.68434	2.89	8.51051
2.895	8.42123	2.895	8.32008
2.9	7.59847	2.9	8.80238
2.905	8.23019	2.905	7.91501
2.91	8.08076	2.91	7.87241
2.915	7.34325	2.915	8.46559
2.92	8.03892	2.92	7.66137
2.925	7.93744	2.925	7.68113
2.93	7.62284	2.93	7.93413
2.935	7.62835	2.935	7.88213
2.94	7.63253	2.94	7.84279
2.945	7.6357	2.945	7.81293
2.95	7.63813	2.95	7.79018
2.955	7.64	2.955	7.77278
2.96	7.64144	2.96	7.75938
2.965	7.64257	2.965	7.74898
2.97	7.64346	2.97	7.74083
2.975	8.03112	2.975	7.34743
2.98	7.94005	2.98	7.43389
2.985	7.87179	2.985	7.49839
2.99	7.82064	2.99	7.54642
2.995	7.78232	2.995	7.58209
3	7.75363	3	7.6085
3.005	7.73215	3.005	7.62796
3.01	7.71609	3.01	7.6422
3.015	7.70409	3.015	7.65254
3.02	8.08208	3.02	7.273
3.025	7.98376	3.025	7.36986
3.03	7.91006	3.03	7.44215
3.035	7.85483	3.035	7.49603
3.04	7.81345	3.04	7.53609
3.045	7.78247	3.045	7.56579
3.05	7.13379	3.05	8.21319
3.055	7.2706	3.055	8.07512
3.06	7.7602	3.06	7.58428
3.065	7.74558	3.065	7.59767
3.07	7.73465	3.07	7.60736
3.075	7.72651	3.075	7.61428
3.08	7.72044	3.08	7.61913
3.085	7.71593	3.085	7.62242
3.09	7.7126	3.09	7.62453
3.095	7.71014	3.095	7.62578
3.1	7.70835	3.1	7.62636
3.105	7.70704	3.105	7.62645
3.11	7.70611	3.11	7.62617
3.115	8.0924	3.115	7.23867
3.12	8.00029	3.12	7.32956
3.125	7.93126	3.125	7.39739
3.13	7.87953	3.13	7.44791
3.135	7.84078	3.135	7.48545
3.14	7.81176	3.14	7.51326
3.145	7.5515	3.145	7.7723
3.15	7.59776	3.15	7.72484
3.155	7.6325	3.155	7.68889
3.16	7.65859	3.16	7.66158
3.165	7.67821	3.165	7.64075
3.17	7.69297	3.17	7.62479
3.175	7.70408	3.175	7.61247
3.18	7.71245	3.18	7.60288
3.185	7.71878	3.185	7.59535
3.19	8.11051	3.19	7.2024
3.195	8.02249	3.195	7.28921
3.2	7.95652	3.2	7.35398
3.205	7.90708	3.205	7.4022
3.21	7.87005	3.21	7.43803
3.215	7.84231	3.215	7.46455
3.22	8.2085	3.22	7.09715
3.225	7.47585	3.225	7.8286
3.23	7.54967	3.23	7.75357
3.235	7.60507	3.235	7.69695
3.24	8.03362	3.24	7.26719
3.245	9.6386	3.245	8.99179
3.25	9.19151	3.25	8.63403
3.255	8.85625	3.255	8.36537
3.26	8.60486	3.26	8.16356
3.265	8.41639	3.265	8.01187
3.27	8.66204	3.27	7.51084
3.275	8.46448	3.275	7.5166
3.28	8.31636	3.28	7.52059
3.285	7.57986	3.285	8.14874
3.29	7.65082	3.29	7.99626
3.295	7.70409	3.295	7.88157
3.3	7.74411	3.3	7.79523
3.305	7.77419	3.305	7.73015
3.31	7.7968	3.31	7.68102
3.315	8.20077	3.315	7.25689
3.32	8.12195	3.32	7.32034
3.325	8.06289	3.325	7.3676
3.33	8.01865	3.33	7.40273
3.335	7.98554	3.335	7.42874
3.34	7.96076	3.34	7.44793
3.345	7.94224	3.345	7.462
3.35	8.31536	3.35	7.08527
3.355	7.58791	3.355	7.80975
3.36	8.29113	3.36	7.10404
3.365	8.19534	3.365	7.19769
3.37	7.49808	3.37	7.8931
3.375	7.59846	3.375	7.79105
3.38	8.06076	3.38	7.32724
3.385	8.02567	3.385	7.36093
3.39	7.99942	3.39	7.38587
3.395	7.97979	3.395	7.40426
3.4	7.96512	3.4	7.41772
3.405	7.95419	3.405	7.42749
3.41	7.94604	3.41	7.4345
3.415	7.93999	3.415	7.43943
3.42	7.93552	3.42	7.4428
3.425	7.30674	3.425	8.07049
3.43	7.84543	3.43	7.53072
3.435	7.86765	3.435	7.50743
3.44	7.88437	3.44	7.48964
3.445	7.89697	3.445	7.47597
3.45	7.90647	3.45	7.4654
3.455	7.91366	3.455	7.45715
3.46	7.91911	3.46	7.45063
3.465	7.92326	3.465	7.44543
3.47	7.92643	3.47	7.4412
3.475	7.30338	3.475	8.06319
3.48	8.47186	3.48	6.89365
3.485	7.71765	3.485	7.6468
3.49	7.77533	3.49	7.58807
3.495	7.81864	3.495	7.54369
3.5	7.85119	3.5	7.51009
3.505	7.87565	3.505	7.48457
3.51	7.89406	3.51	7.46511
3.515	7.90792	3.515	7.45019
3.52	7.91838	3.52	7.43867
3.525	7.92628	3.525	7.42972
3.53	7.93226	3.53	7.42268
3.535	7.31132	3.535	8.04256
3.54	7.8559	3.54	7.49693
3.545	7.88252	3.545	7.46925
3.55	7.90254	3.55	7.44817
3.555	7.91762	3.555	7.43204
3.56	7.92898	3.56	7.41962
3.565	7.93756	3.565	7.40998
3.57	7.94405	3.57	7.40244
3.575	7.94897	3.575	7.39645
3.58	7.95272	3.58	7.39165
3.585	7.95559	3.585	7.38772
3.59	7.9578	3.59	7.38446
3.595	7.95951	3.595	7.38169
3.6	7.33538	3.6	8.00477
3.605	7.4906	3.605	7.84849
3.61	7.60707	3.61	7.73096
3.615	7.69449	3.615	7.64249
3.62	8.14705	3.62	7.18887
3.625	8.10466	3.625	7.2302
3.63	7.68598	3.63	7.64783
3.635	8.14083	3.635	7.19191
3.64	8.10016	3.64	7.23153
3.645	8.06972	3.645	7.26091
3.65	8.04694	3.65	7.28263
3.655	7.40443	3.655	7.92409
3.66	7.54588	3.66	7.78158
3.665	7.65202	3.665	7.67439
3.67	7.73168	3.67	7.59367
3.675	7.79148	3.675	7.53281
3.68	7.83638	3.68	7.48685
3.685	8.25706	3.685	7.06512
3.69	8.19076	3.69	7.13036
3.695	8.14109	3.695	7.17897
3.7	8.10389	3.7	7.21511
3.705	8.07605	3.705	7.2419
3.71	7.42974	3.71	7.88715
3.715	7.56834	3.715	7.7475
3.72	7.67234	3.72	7.64244
3.725	7.75039	3.725	7.56333
3.73	7.80899	3.73	7.50368
3.735	7.85299	3.735	7.45863
3.74	7.88604	3.74	7.42452
3.745	7.91088	3.745	7.39861
3.75	7.92957	3.75	7.37887
3.755	7.94364	3.755	7.36374
3.76	7.95425	3.76	7.35208
3.765	7.33677	3.765	7.9685
3.77	7.49699	3.77	7.80722
3.775	7.61721	3.775	7.68594
3.78	7.70743	3.78	7.59467
3.785	7.77515	3.785	7.5259
3.79	7.82599	3.79	7.474
3.795	7.86417	3.795	7.43476
3.8	7.89286	3.8	7.40501
3.805	7.91443	3.805	7.38239
3.81	8.31761	3.81	6.97815
3.815	8.23818	3.815	7.05653
3.82	7.55318	3.82	7.74047
3.825	7.66275	3.825	7.62984
3.83	7.74499	3.83	7.54655
3.835	7.80671	3.835	7.48376
3.84	7.85306	3.84	7.43636
3.845	7.50093	3.845	7.78744
3.85	7.61874	3.85	7.66856
3.855	8.0941	3.855	7.19215
3.86	8.06881	3.86	7.21638
3.865	7.66295	3.865	7.62119
3.87	8.12741	3.87	7.15567
3.875	8.09395	3.875	7.18807
3.88	7.68196	3.88	7.59901
3.885	7.75488	3.885	7.52503
3.89	7.57109	3.89	7.70776
3.895	7.67471	3.895	7.60309
3.9	7.75247	3.9	7.52427
3.905	7.81084	3.905	7.46484
3.91	7.85467	3.91	7.41995
3.915	7.8876	3.915	7.38597
3.92	7.91234	3.92	7.36017
3.925	7.93095	3.925	7.34051
3.93	9.61036	3.93	8.99084
3.935	9.21909	3.935	8.5774
3.94	8.9257	3.94	8.26702
3.945	8.70574	3.945	8.03394
3.95	7.91535	3.95	8.48432
3.955	7.94591	3.955	8.19853
3.96	7.96889	3.96	7.9839
3.965	7.9862	3.965	7.82263
3.97	7.99925	3.97	7.70138
3.975	8.0091	3.975	7.61015
3.98	7.62962	3.98	7.92838
3.985	7.72694	3.985	7.78489
3.99	7.8	3.99	7.67698
3.995	7.85486	3.995	7.59575
4	7.89608	4	7.53453
4.005	7.92706	4.005	7.48832
4.01	7.95037	4.01	7.45337
4.015	7.96792	4.015	7.42686
4.02	7.98115	4.02	7.40669
4.025	7.36566	4.025	8.01674
4.03	7.52738	4.03	7.85071
4.035	7.64875	4.035	7.7259
4.04	7.73984	4.04	7.63199
4.045	7.80822	4.045	7.56127
4.05	7.85958	4.05	7.50794
4.055	7.89817	4.055	7.46764
4.06	7.92717	4.06	7.43712
4.065	7.949	4.065	7.41394
4.07	7.96543	4.07	7.39626
4.075	7.97783	4.075	7.38271
4.08	7.9872	4.08	7.37225
4.085	7.99429	4.085	7.36411
4.09	7.99967	4.09	7.35771
4.095	7.3783	4.095	7.9781
4.1	7.77415	4.1	7.58129
4.105	7.20421	4.105	8.15028
4.11	7.4001	4.11	7.95345
4.115	7.54708	4.115	7.80554
4.12	7.65739	4.12	7.69431
4.125	7.74018	4.125	7.6106
4.13	7.80235	4.13	7.54752
4.135	7.84904	4.135	7.49992
4.14	7.88412	4.14	7.46392
4.145	7.91051	4.145	7.43663
4.15	7.93036	4.15	7.41587
4.155	7.94532	4.155	7.40001
4.16	7.9566	4.16	7.38782
4.165	7.96513	4.165	7.37838
4.17	7.34612	4.17	7.99649
4.175	7.5052	4.175	7.83651
4.18	7.62457	4.18	7.71623
4.185	7.71417	4.185	7.62573
4.19	7.78143	4.19	7.55756
4.195	7.445	4.195	7.89309
4.2	7.57461	4.2	7.76258
4.205	8.05883	4.205	7.27746
4.21	7.65325	4.21	7.68214
4.215	7.73099	4.215	7.60349
4.22	7.78937	4.22	7.54421
4.225	7.83321	4.225	7.49946
4.23	7.86617	4.23	7.4656
4.235	7.89095	4.235	7.43992
4.24	7.9096	4.24	7.42036
4.245	7.92366	4.245	7.4054
4.25	7.30878	4.25	8.01937
4.255	7.47097	4.255	7.85629
4.26	7.59267	4.26	7.73368
4.265	7.68401	4.265	7.64143
4.27	7.75258	4.27	7.57196
4.275	7.80408	4.275	7.51956
4.28	7.84276	4.28	7.47997
4.285	7.87185	4.285	7.44999
4.29	7.89372	4.29	7.42721
4.295	7.91019	4.295	7.40983
4.3	7.92261	4.3	7.39651
4.305	7.93199	4.305	7.38623
4.31	7.93909	4.31	7.37822
4.315	7.94448	4.315	7.37193
4.32	7.94859	4.32	7.36692
4.325	7.95174	4.325	7.36287
4.33	7.32868	4.33	7.98502
4.335	7.48473	4.335	7.82807
4.34	7.60183	4.34	7.71007
4.345	7.68972	4.345	7.62127
4.35	7.7557	4.35	7.55439
4.355	7.80525	4.355	7.50394
4.36	7.84247	4.36	7.46581
4.365	7.87046	4.365	7.43692
4.37	7.89151	4.37	7.41496
4.375	7.90737	4.375	7.39821
4.38	7.91932	4.38	7.38535
4.385	7.92835	4.385	7.37541
4.39	7.93519	4.39	7.36767
4.395	7.94038	4.395	7.36158
4.4	7.94434	4.4	7.35671
4.405	7.94737	4.405	7.35278
4.41	7.32423	4.41	7.97501
4.415	7.48021	4.415	7.81813
4.42	7.59726	4.42	7.70018
4.425	7.68511	4.425	7.61142
4.43	7.75106	4.43	7.54457
4.435	7.80059	4.435	7.49414
4.44	7.8378	4.44	7.45603
4.445	7.86577	4.445	7.42716
4.45	9.55221	4.45	9.07061
4.455	9.16623	4.455	8.65203
4.46	8.87682	4.46	8.33783
4.465	8.65985	4.465	8.10191
4.47	8.49721	4.47	7.9247
4.475	8.3753	4.475	7.79152
4.48	8.28396	4.48	7.69137
4.485	7.59006	4.485	8.24147
4.49	8.31846	4.49	7.40501
4.495	7.6161	4.495	8.02616
4.5	7.71268	4.5	7.86848
4.505	7.78519	4.505	7.74994
4.51	7.83966	4.51	7.66078
4.515	7.8806	4.515	7.59363
4.52	7.91138	4.52	7.543
4.525	7.93454	4.525	7.50476
4.53	7.952	4.53	7.47581
4.535	7.96518	4.535	7.45383
4.54	7.97514	4.54	7.43708
4.545	7.98269	4.545	7.42424
4.55	7.98844	4.55	7.41435
4.555	7.99283	4.555	7.40666
4.56	7.99621	4.56	7.40062
4.565	7.99882	4.565	7.39582
4.57	8.00087	4.57	7.39195
4.575	8.00248	4.575	7.38878
4.58	7.37829	4.58	8.01162
4.585	7.5335	4.585	7.8552
4.59	8.27547	4.59	7.11214
4.595	7.58328	4.595	7.80333
4.6	7.68748	4.6	7.69818
4.605	7.76572	4.605	7.61905
4.61	7.82448	4.61	7.55944
4.615	7.86863	4.615	7.51446
4.62	7.90182	4.62	7.48045
4.625	7.9268	4.625	7.45468
4.63	7.94561	4.63	7.43509
4.635	7.9598	4.635	7.42012
4.64	7.58358	4.64	7.79557
4.645	7.68335	4.645	7.69503
4.65	8.14522	4.65	7.23241
4.655	8.10983	4.655	7.26704
4.66	8.08337	4.66	7.29275
4.665	8.0636	4.665	7.31176
4.67	8.04886	4.67	7.32575
4.675	8.03788	4.675	7.33597
4.68	8.02973	4.68	7.34337
4.685	7.39822	4.685	7.97413
4.69	7.54793	4.69	7.82366
4.695	7.6603	4.695	7.71054
4.7	7.74466	4.7	7.62544
4.705	7.808	4.705	7.56134
4.71	7.46865	4.71	7.89995
4.715	7.59607	4.715	7.77177
4.72	7.69172	4.72	7.67537
4.725	7.76354	4.725	7.6028
4.73	7.81749	4.73	7.54811
4.735	7.85802	4.735	7.50682
4.74	7.8885	4.74	7.47559
4.745	7.91145	4.745	7.4519
4.75	7.92873	4.75	7.43386
4.755	7.94178	4.755	7.42007
4.76	7.95164	4.76	7.40945
4.765	7.95912	4.765	7.40123
4.77	7.33932	4.77	8.02027
4.775	8.12331	4.775	7.23553
4.78	8.08811	4.78	7.26999
4.785	7.43631	4.785	7.92104
4.79	7.57081	4.79	7.78579
4.795	7.67176	4.795	7.68409
4.8	7.74755	4.8	7.60754
4.805	7.80448	4.805	7.54987
4.81	7.84725	4.81	7.50635
4.815	7.87941	4.815	7.47344
4.82	7.9036	4.82	7.44849
4.825	7.92183	4.825	7.42951
4.83	7.93558	4.83	7.41501
4.835	7.94597	4.835	7.40387
4.84	7.95384	4.84	7.39525
4.845	7.95983	4.845	7.38852
4.85	7.96439	4.85	7.3832
4.855	7.96789	4.855	7.37895
4.86	7.9706	4.86	7.3755
4.865	7.97271	4.865	7.37264
4.87	7.34889	4.87	7.99571
4.875	7.50437	4.875	7.83947
4.88	7.62107	4.88	7.72203
4.885	7.70866	4.885	7.63368
4.89	7.77444	4.89	7.56716
4.895	7.82385	4.895	7.517
4.9	7.86098	4.9	7.47911
4.905	7.88891	4.905	7.45044
4.91	7.90994	4.91	7.42866
4.915	7.92578	4.915	7.41206
4.92	7.93774	4.92	7.39935
4.925	7.94679	4.925	7.38955
4.93	7.95366	4.93	7.38194
4.935	7.95889	4.935	7.37596
4.94	7.96288	4.94	7.37121
4.945	7.96596	4.945	7.36739
4.95	7.96835	4.95	7.36425
4.955	7.97021	4.955	7.36163
4.96	7.97169	4.96	7.35941
4.965	7.3474	4.965	7.98295
4.97	7.50253	4.97	7.82707
4.975	7.61895	4.975	7.7099
4.98	7.70634	4.98	7.62175
4.985	7.77197	4.985	7.55538
4.99	7.82126	4.99	7.50534
4.995	7.85831	4.995	7.46754
5	21.0355	5	20.5882
5.005	21.0739	5.005	20.584
5.01	21.1072	5.01	20.5849
5.015	21.1366	5.015	20.5896
5.02	21.163	5.02	20.5973
5.025	21.5743	5.025	20.2202
5.03	21.5053	5.03	20.3234
5.035	21.071	5.035	20.7918
5.04	21.5186	5.04	20.3784
5.045	21.4769	5.045	20.4543
5.05	21.063	5.05	20.9022
5.055	21.139	5.055	20.8605
5.06	21.2004	5.06	20.8332
5.065	21.2509	5.065	20.8169
5.07	21.2932	5.07	20.8087
5.075	21.3293	5.075	20.8067
5.08	21.3609	5.08	20.8093
5.085	19.7236	5.085	19.15
5.09	20.151	5.09	19.5604
5.095	20.4759	5.095	19.8723
5.1	20.724	5.1	20.1104
5.105	20.9145	5.105	20.293
5.11	21.0619	5.11	20.434
5.115	21.5637	5.115	20.1569
5.12	21.5626	5.12	20.335
5.125	19.5139	5.125	19.1942
5.13	20.4015	5.13	19.2248
5.135	20.3028	5.135	20.0206
5.14	21.0019	5.14	19.8527
5.145	20.7619	5.145	20.4996
5.15	19.6897	5.15	18.5547
5.155	20.1589	5.155	19.1328
5.16	20.5153	5.16	19.5704
5.165	20.7869	5.165	19.9026
5.17	19.3296	5.17	18.4905
5.175	19.8919	5.175	19.0862
5.18	19.278	5.18	17.2462
5.185	19.2241	5.185	18.7699
5.19	18.7714	5.19	17.0025
5.195	18.8383	5.195	18.5805
5.2	18.4762	5.2	16.8539
5.205	18.6111	5.205	18.4626
5.21	19.9653	5.21	18.4242
5.215	17.0312	5.215	15.692
5.22	18.1366	5.22	16.9485
5.225	19.3569	5.225	17.5078
5.23	18.2292	5.23	16.6477
5.235	17.9986	5.235	15.3666
5.24	14.9012	5.24	13.9785
5.245	17.5199	5.245	14.6073
5.25	16.8175	5.25	14.4225
5.255	12.9497	5.255	10.9425
5.26	15.3925	5.26	12.9019
5.265	15.42	5.265	12.8532
5.27	13.9104	5.27	10.995
5.275	13.4112	5.275	12.2488
5.28	13.6497	5.28	12.5551
5.285	14.205	5.285	12.387
5.29	14.8546	5.29	12.0065
5.295	11.1387	5.295	9.24122
5.3	12.5098	5.3	9.59126
5.305	9.57355	5.305	7.13532
5.31	11.0494	5.31	8.1972
5.315	11.3768	5.315	9.75141
5.32	10.3281	5.32	8.85876
5.325	10.9433	5.325	10.0676
5.33	12.4993	5.33	9.85775
5.335	9.84698	5.335	6.83616
5.34	11.1813	5.34	11.1588
5.345	11.3524	5.345	8.57582
5.35	9.58337	5.35	8.48489
5.355	10.5198	5.355	9.43306
5.36	11.5982	5.36	9.74597
5.365	8.44486	5.365	7.25897
5.37	10.4761	5.37	7.57874
5.375	10.8852	5.375	8.91041
5.38	8.09166	5.38	6.32558
5.385	9.28719	5.385	7.6773
5.39	9.78577	5.39	9.06657
5.395	7.19964	5.395	6.38438
5.4	8.31211	5.4	7.90153
5.405	5.65891	5.405	5.84257
5.41	7.96688	5.41	6.58118
5.415	9.06329	5.415	7.74677
5.42	4.25262	5.42	4.23861
5.425	5.16927	5.425	3.63428
5.43	4.82062	5.43	4.16498
5.435	4.67649	5.435	4.39336
5.44	7.07468	5.44	5.33681
5.445	4.28225	5.445	3.95049
5.45	6.10142	5.45	5.57734
5.455	7.45419	5.455	6.78554
5.46	6.79176	5.46	6.01433
5.465	7.93418	5.465	7.07482
5.47	8.77932	5.47	7.85817
5.475	3.77982	5.475	4.06294
5.48	3.92897	5.48	3.86841
5.485	-0.981663	5.485	-1.30033
5.49	1.54008	5.49	1.80138
5.495	-1.19486	5.495	-1.26265
5.5	1.69462	5.5	1.37966
5.505	3.22423	5.505	3.97451
5.51	3.31727	5.51	3.6196
5.515	5.02587	5.515	4.99189
5.52	6.29522	5.52	6.00867
5.525	3.27885	5.525	4.05349
5.53	5.3164	5.53	4.86616
5.535	6.45051	5.535	5.84499
5.54	4.34502	5.54	2.84882
5.545	3.38269	5.545	3.23282
5.55	3.25739	5.55	2.8704
5.555	4.80197	5.555	4.23679
5.56	5.94804	5.56	5.24888
5.565	1.17353	5.565	1.62452
5.57	3.15614	5.57	3.22285
5.575	4.24366	5.575	4.79573
5.58	2.48483	5.58	1.86294
5.585	3.44758	5.585	3.95959
5.59	4.78034	5.59	4.8959
5.595	3.21041	5.595	1.4805
5.6	3.93288	5.6	3.59697
5.605	5.47227	5.605	4.16109
5.61	2.90147	5.61	1.62222
5.615	4.26239	5.615	3.00677
5.62	5.27032	5.62	4.03208
5.625	5.77494	5.625	5.02648
5.63	6.382	5.63	5.51773
5.635	6.82446	5.635	5.873
5.64	5.23953	5.64	4.69941
5.645	5.93024	5.645	5.21549
5.65	6.43537	5.65	5.58932
5.655	5.90978	5.655	3.41714
5.66	5.7643	5.66	4.81482
5.665	6.65243	5.665	4.83954
5.67	5.64521	5.67	3.17428
5.675	6.14578	5.675	3.94472
5.68	4.21726	5.68	3.46925
5.685	5.41888	5.685	3.73989
5.69	5.92512	5.69	4.31129
5.695	6.29165	5.695	4.72638
5.7	6.94034	5.7	4.63727
5.705	6.79327	5.705	5.17733
5.71	6.91119	5.71	5.32744
5.715	9.03875	5.715	6.70494
5.72	5.40606	5.72	2.97629
5.725	7.49499	5.725	5.27385
5.73	6.11907	5.73	3.28018
5.735	6.72979	5.735	3.41711
5.74	8.45803	5.74	5.55342
5.745	7.4645	5.745	6.11658
5.75	7.71622	5.75	5.51506
5.755	9.17517	5.755	7.09749
5.76	8.99206	5.76	6.23278
5.765	8.45947	5.765	5.9524
5.77	10.099	5.77	7.00684
5.775	9.04387	5.775	6.75345
5.78	10.1459	5.78	7.97364
5.785	9.69509	5.785	6.8372
5.79	8.96165	5.79	6.35297
5.795	10.4504	5.795	7.25446
5.8	9.13386	5.8	7.03471
5.805	8.90175	5.805	6.08728
5.81	9.99769	5.81	7.41014
5.815	9.15524	5.815	6.73757
5.82	9.5498	5.82	8.51018
5.825	9.19151	5.825	7.16468
5.83	10.1928	5.83	8.18895
5.835	10.9447	5.835	8.9578
5.84	10.6181	5.84	7.09579
5.845	10.8743	5.845	8.50147
5.85	10.1708	5.85	7.12215
5.855	10.9131	5.855	8.12102
5.86	11.4707	5.86	8.87077
5.865	11.5029	5.865	9.82064
5.87	10.2445	5.87	8.48638
5.875	10.9524	5.875	9.13716
5.88	11.4843	5.88	9.62584
5.885	9.83175	5.885	8.71447
5.89	10.626	5.89	9.30054
5.895	11.2225	5.895	9.74066
5.9	10.0054	5.9	8.40592
5.905	10.7443	5.905	9.0563
5.91	11.2994	5.91	9.54463
5.915	11.7165	5.915	9.91143
5.92	12.0303	5.92	10.1871
5.925	10.601	5.925	8.72895
5.93	11.1808	5.93	9.28678
5.935	9.56417	5.935	8.42723
5.94	9.99832	5.94	9.43905
5.945	10.7066	5.945	9.81655
5.95	11.4772	5.95	9.86166
5.955	11.8145	5.955	10.1374
5.96	10.403	5.96	8.67931
5.965	10.6091	5.965	9.62408
5.97	10.7593	5.97	10.3382
5.975	11.2547	5.975	10.4924
5.98	9.57472	5.98	9.33016
5.985	9.96131	5.985	10.1149
5.99	10.6339	5.99	10.322
5.995	10.7522	5.995	10.8648
6	9.17121	6	9.61203
6.005	10.019	6.005	9.94193
6.01	10.2687	6.01	10.5768
6.015	10.4516	6.015	11.0584
6.02	11.5969	6.02	10.4127
6.025	9.78102	6.025	9.27376
6.03	10.0657	6.03	10.0759
6.035	10.6618	6.035	10.2961
6.04	8.67032	6.04	9.5702
6.045	9.20513	6.045	10.3003
6.05	10.6143	6.05	9.84088
6.055	10.2748	6.055	10.8939
6.06	9.11916	6.06	9.25498
6.065	9.51711	6.065	10.064
6.07	9.42426	6.07	11.0632
6.075	8.06672	6.075	9.77079
6.08	8.69506	6.08	10.4578
6.085	9.54888	6.085	10.5916
6.09	9.80298	6.09	11.0793
6.095	10.6147	6.095	10.825
6.1	8.93034	6.1	9.5976
6.105	9.70054	6.105	9.94644
6.11	9.89192	6.11	10.5954
6.115	9.6441	6.115	11.4744
6.12	8.55724	6.12	9.70496
6.125	9.00669	6.125	10.416
6.13	9.33935	6.13	10.9547
6.135	8.93145	6.135	8.68636
6.14	9.26683	6.14	9.6465
6.145	9.51392	6.145	10.372
6.15	9.6948	6.15	10.9215
6.155	8.54755	6.155	9.2867
6.16	8.56474	6.16	10.4857
6.165	9.34197	6.165	10.6215
6.17	8.1117	6.17	9.2066
6.175	8.594	6.175	10.0431
6.18	7.28585	6.18	9.01045
6.185	8.33807	6.185	9.50524
6.19	8.74087	6.19	10.2635
6.195	9.42541	6.195	10.4506
6.2	9.55245	6.2	10.9782
6.205	8.36477	6.205	9.3268
6.21	8.73852	6.21	10.1263
6.215	9.40126	6.215	10.3444
6.22	9.51192	6.22	10.8951
6.225	8.93743	6.225	8.6356
6.23	9.14778	6.23	9.60231
6.235	9.68794	6.235	9.94569
6.24	8.04126	6.24	8.92499
6.245	8.83954	6.245	9.42869
6.25	9.43876	6.25	9.80666
6.255	9.50176	6.255	10.4773
6.26	8.26599	6.26	8.93317
6.265	8.60362	6.265	9.8131
6.27	9.23921	6.27	10.0914
6.275	9.7164	6.275	10.3002
6.28	9.03488	6.28	8.16618
6.285	9.55185	6.285	8.83996
6.29	9.94006	6.29	9.34545
6.295	9.84475	6.295	10.1117
6.3	10.1556	6.3	10.3046
6.305	8.72386	6.305	8.7841
6.31	9.3014	6.31	9.29474
6.315	9.73502	6.315	9.67785
6.32	8.3953	6.32	8.29992
6.325	9.04185	6.325	8.91748
6.33	9.52721	6.33	9.38077
6.335	9.89168	6.335	9.72835
6.34	8.50008	6.34	8.32376
6.345	9.1077	6.345	8.92131
6.35	10.1893	6.35	8.74408
6.355	10.3777	6.355	9.23453
6.36	10.5194	6.36	9.60247
6.365	8.96071	6.365	8.21312
6.37	9.44299	6.37	8.82207
6.375	9.80512	6.375	9.27887
6.38	10.0771	6.38	9.62154
6.385	10.2815	6.385	9.87862
6.39	10.4352	6.39	10.0715
6.395	10.5509	6.395	10.2163
6.4	8.97272	6.4	8.65949
6.405	9.82729	6.405	8.75593
6.41	10.0867	6.41	9.21017
6.415	10.2817	6.415	9.55092
6.42	10.4283	6.42	9.80653
6.425	10.5387	6.425	9.9983
6.43	10.6218	6.43	10.1422
6.435	9.01921	6.435	8.58476
6.44	9.46849	6.44	9.06763
6.445	9.80583	6.445	9.42981
6.45	10.0592	6.45	9.70149
6.455	10.6365	6.455	9.51834
6.46	10.6881	6.46	9.76288
6.465	9.06166	6.465	8.28093
6.47	9.49311	6.47	8.82038
6.475	9.81705	6.475	9.22498
6.48	10.0604	6.48	9.52846
6.485	10.2432	6.485	9.75608
6.49	10.7676	6.49	9.53987
6.495	10.7794	6.495	9.7596
6.5	10.7886	6.5	9.92442
6.505	10.7959	6.505	10.0481
6.51	9.13626	6.51	8.4754
6.515	9.54278	6.515	8.9468
6.52	9.848	6.52	9.30035
6.525	10.7027	6.525	8.94004
6.53	11.1078	6.53	8.90613
6.535	11.03	6.535	9.26256
6.54	9.30668	6.54	7.86448
6.545	9.66536	6.545	8.4668
6.55	9.93468	6.55	8.91852
6.555	10.137	6.555	9.25729
6.56	10.289	6.56	9.51134
6.565	10.4034	6.565	9.70187
6.57	10.4894	6.57	9.84474
6.575	10.5543	6.575	9.95187
6.58	10.6033	6.58	10.0322
6.585	10.6403	6.585	10.0924
6.59	9.00302	6.59	8.47219
6.595	9.42623	6.595	8.90786
6.6	9.74393	6.6	9.23457
6.605	9.9825	6.605	9.47957
6.61	10.1617	6.61	9.66328
6.615	10.2964	6.615	9.80102
6.62	10.3978	6.62	9.90429
6.625	10.4741	6.625	9.9817
6.63	8.86617	6.63	8.37432
6.635	9.31143	6.635	8.81962
6.64	9.64564	6.64	9.15354
6.645	9.2711	6.645	10.0294
6.65	9.22679	6.65	10.4499
6.655	9.5757	6.655	10.3834
6.66	9.83766	6.66	10.3334
6.665	10.0344	6.665	10.2959
6.67	10.1822	6.67	10.2677
6.675	10.2934	6.675	10.2465
6.68	10.377	6.68	10.2305
6.685	10.44	6.685	10.2185
6.69	10.1006	6.69	10.5963
6.695	8.56278	6.695	8.83243
6.7	9.4475	6.7	8.77336
6.705	9.34249	6.705	9.49779
6.71	9.64586	6.71	9.65918
6.715	9.87363	6.715	9.78014
6.72	10.0447	6.72	9.87078
6.725	10.1733	6.725	9.93869
6.73	10.27	6.73	9.98954
6.735	10.3427	6.735	10.0276
6.74	10.3976	6.74	10.0561
6.745	10.439	6.745	10.0774
6.75	10.4702	6.75	10.0932
6.755	10.107	6.755	10.492
6.76	10.2167	6.76	10.4092
6.765	10.2993	6.765	10.3469
6.77	8.69601	6.77	8.63481
6.775	9.14471	6.775	9.0015
6.78	9.48147	6.78	9.27643
6.785	9.73428	6.785	9.48253
6.79	9.92412	6.79	9.63701
6.795	10.0667	6.795	9.75277
6.8	10.1739	6.8	9.8395
6.805	10.2546	6.805	9.90445
6.81	10.3153	6.81	9.95306
6.815	10.3611	6.815	9.98943
6.82	9.77013	6.82	10.6421
6.825	9.95045	6.825	10.5082
6.83	10.0859	6.83	10.4077
6.835	10.1878	6.835	10.3322
6.84	10.2644	6.84	10.2756
6.845	10.3221	6.845	10.2329
6.85	9.97865	6.85	10.5878
6.855	8.43777	6.855	8.80664
6.86	8.93323	6.86	9.12152
6.865	9.30503	6.865	9.35758
6.87	9.5841	6.87	9.5345
6.875	9.79362	6.875	9.66708
6.88	9.95098	6.88	9.7664
6.885	10.0692	6.885	9.84078
6.89	10.1581	6.89	9.89645
6.895	10.225	6.895	9.93809
6.9	10.2754	6.9	9.9692
6.905	10.3134	6.905	9.99242
6.91	9.7166	6.91	10.6352
6.915	9.89251	6.915	10.4939
6.92	10.0247	6.92	10.3878
6.925	10.124	6.925	10.3081
6.93	10.1987	6.93	10.2483
6.935	10.6419	6.935	9.81631
6.94	10.5926	6.94	9.87409
6.945	10.5559	6.945	9.91731
6.95	10.5286	6.95	9.94962
6.955	10.5083	6.955	9.97373
6.96	10.4933	6.96	9.99171
6.965	8.81688	6.965	8.33968
6.97	9.21065	6.97	8.75142
6.975	9.50617	6.975	9.06009
6.98	9.72801	6.98	9.29146
6.985	9.2691	6.985	10.0903
6.99	9.54839	6.99	10.0661
6.995	10.145	6.995	9.66083
7	10.2108	7	9.73862
7.005	10.2603	7.005	9.79683
7.01	10.2977	7.01	9.84036
7.015	10.3259	7.015	9.87287
7.02	9.72173	7.02	10.5226
7.025	9.8921	7.025	10.3865
7.03	10.0201	7.03	10.2843
7.035	10.1162	7.035	10.2075
7.04	10.1886	7.04	10.1498
7.045	10.243	7.045	10.1064
7.05	10.671	7.05	9.68674
7.055	10.6103	7.055	9.75374
7.06	10.5649	7.06	9.80386
7.065	10.5311	7.065	9.84133
7.07	10.506	7.07	9.86929
7.075	10.4873	7.075	9.89014
7.08	10.4735	7.08	9.90564
7.085	9.83785	7.085	10.5426
7.09	10.3715	7.09	10.01
7.095	10.3901	7.095	9.99228
7.1	10.4042	7.1	9.97886
7.105	10.415	7.105	9.96866
7.11	10.4233	7.11	9.96088
7.115	8.76434	7.115	8.28953
7.12	9.55811	7.12	8.29981
7.125	9.14627	7.125	9.31471
7.13	9.46083	7.13	9.45247
7.135	9.69693	7.135	9.55565
7.14	9.87417	7.14	9.63288
7.145	10.0073	7.145	9.69066
7.15	10.1073	7.15	9.73384
7.155	10.1825	7.155	9.76608
7.16	10.626	7.16	9.40317
7.165	10.5769	7.165	9.5127
7.17	9.91478	7.17	10.2202
7.175	10.0416	7.175	10.1274
7.18	10.137	7.18	10.0576
7.185	10.2086	7.185	10.0052
7.19	10.2625	7.19	9.96568
7.195	10.6901	7.195	9.54897
7.2	10.6291	7.2	9.61815
7.205	10.5835	7.205	9.6699
7.21	10.5495	7.21	9.70856
7.215	9.89862	7.215	10.3629
7.22	10.0339	7.22	10.2302
7.225	10.1356	7.225	10.1306
7.23	10.212	7.23	10.0557
7.235	10.2695	7.235	9.99938
7.24	10.6997	7.24	9.57006
7.245	10.6407	7.245	9.62979
7.25	10.5966	7.25	9.67444
7.255	9.93825	7.255	10.3333
7.26	10.0679	7.26	10.204
7.265	10.1653	7.265	10.1068
7.27	10.2385	7.27	10.0339
7.275	10.2936	7.275	9.97897
7.28	10.3351	7.28	9.93767
7.285	10.7534	7.285	9.5196
7.29	10.6853	7.29	9.58777
7.295	10.009	7.295	10.2642
7.3	10.1252	7.3	10.1482
7.305	10.2125	7.305	10.061
7.31	10.2782	7.31	9.99542
7.315	10.3276	7.315	9.94612
7.32	10.3648	7.32	9.90901
7.325	10.3929	7.325	9.88102
7.33	10.4142	7.33	9.85989
7.335	10.4302	7.335	9.8439
7.34	10.4425	7.34	9.83177
7.345	9.82636	7.345	10.448
7.35	9.9877	7.35	10.2868
7.355	10.4958	7.355	9.77874
7.36	10.1083	7.36	10.1664
7.365	10.5866	7.365	9.68819
7.37	10.5636	7.37	9.71125
7.375	10.5466	7.375	9.7284
7.38	10.534	7.38	9.74113
7.385	9.89917	7.385	10.376
7.39	10.0465	7.39	10.2288
7.395	10.1572	7.395	10.1182
7.4	10.2404	7.4	10.0351
7.405	10.3029	7.405	9.97265
7.41	10.35	7.41	9.92567
7.415	10.3855	7.415	9.89029
7.42	9.7868	7.42	10.4891
7.425	10.3482	7.425	9.92784
7.43	10.3875	7.43	9.88863
7.435	10.4171	7.435	9.85907
7.44	10.4395	7.44	9.83677
7.445	10.4565	7.445	9.8199
7.45	10.4694	7.45	9.80711
7.455	10.4792	7.455	9.79737
7.46	10.4868	7.46	9.78993
7.465	9.86713	7.465	10.4097
7.47	10.0258	7.47	10.2511
7.475	10.145	7.475	10.132
7.48	10.2346	7.48	10.0426
7.485	10.3019	7.485	9.97533
7.49	10.3526	7.49	9.92477
7.495	9.76525	7.495	10.5122
7.5	9.9482	7.5	10.3293
7.505	10.0856	7.505	10.1921
7.51	10.1888	7.51	10.089
7.515	10.2663	7.515	10.0115
7.52	10.3247	7.52	9.95328
7.525	10.3686	7.525	9.90947
7.53	10.4017	7.53	9.87647
7.535	10.4267	7.535	9.85158
7.54	9.8201	7.54	10.4583
7.545	10.3756	7.545	9.9029
7.55	10.4104	7.55	9.86812
7.555	10.4368	7.555	9.84189
7.56	10.4567	7.56	9.82209
7.565	10.4718	7.565	9.80709
7.57	10.4833	7.57	9.79571
7.575	10.492	7.575	9.78703
7.58	9.8733	7.58	10.4059
7.585	10.0327	7.585	10.2466
7.59	10.1524	7.59	10.127
7.595	10.2423	7.595	10.0372
7.6	10.3099	7.6	9.96964
7.605	10.3608	7.605	9.91887
7.61	10.3991	7.61	9.88066
7.615	9.80255	7.615	10.4773
7.62	9.97855	7.62	10.3014
7.625	10.4977	7.625	9.78244
7.63	10.1183	7.63	10.1619
7.635	10.6028	7.635	9.67748
7.64	10.5845	7.64	9.69592
7.645	10.5709	7.645	9.70962
7.65	8.89545	7.65	8.05436
7.655	8.66443	7.655	9.08913
7.66	9.11458	7.66	9.24178
7.665	9.45234	7.665	9.35612
7.67	9.70579	7.67	9.44172
7.675	9.89603	7.675	9.50576
7.68	9.41336	7.68	10.1791
7.685	9.67478	7.685	10.0607
7.69	9.87098	7.69	9.97176
7.695	10.0183	7.695	9.90489
7.7	10.5158	7.7	9.46764
7.705	10.5073	7.705	9.52141
7.71	10.501	7.71	9.56159
7.715	10.4964	7.715	9.59156
7.72	9.86765	7.72	10.2394
7.725	10.0195	7.725	10.1018
7.73	10.1335	7.73	9.99848
7.735	10.6061	7.735	9.53389
7.74	10.5788	7.74	9.56716
7.745	9.93303	7.745	10.2174
7.75	10.0721	7.75	10.0817
7.755	10.1765	7.755	9.97979
7.76	10.255	7.76	9.90318
7.765	10.314	7.765	9.84558
7.77	10.3584	7.77	9.80222
7.775	10.3918	7.775	9.76956
7.78	10.417	7.78	9.74491
7.785	10.1975	7.785	9.9648
7.79	10.2744	7.79	9.88816
7.795	10.3322	7.795	9.83054
7.8	10.3758	7.8	9.78717
7.805	10.4085	7.805	9.75449
7.81	10.4332	7.81	9.72983
7.815	10.4519	7.815	9.71118
7.82	9.84058	7.82	10.3225
7.825	10.0055	7.825	10.1576
7.83	10.1293	7.83	10.0338
7.835	10.2223	7.835	9.94076
7.84	10.2922	7.84	9.87084
7.845	10.7317	7.845	9.43131
7.85	10.6796	7.85	9.48338
7.855	10.6406	7.855	9.52228
7.86	10.6116	7.86	9.5513
7.865	9.96442	7.865	10.1984
7.87	10.1025	7.87	10.0603
7.875	10.2061	7.875	9.95659
7.88	10.284	7.88	9.87865
7.885	10.3426	7.885	9.82005
7.89	10.3866	7.89	9.77595
7.895	10.4198	7.895	9.74273
7.9	9.81934	7.9	10.3431
7.905	10.3793	7.905	9.78309
7.91	10.0307	7.91	10.1317
7.915	10.5381	7.915	9.62422
7.92	10.537	7.92	9.62532
7.925	10.5362	7.925	9.62599
7.93	9.91034	7.93	10.2518
7.935	10.0643	7.935	10.0978
7.94	10.1799	7.94	9.98212
7.945	10.2668	7.945	9.89522
7.95	10.3321	7.95	9.82989
7.955	10.3812	7.955	9.78076
7.96	10.4181	7.96	9.74375
7.965	10.446	7.965	9.71586
7.97	9.84149	7.97	10.3203
7.975	10.0116	7.975	10.1502
7.98	10.1392	7.98	10.0224
7.985	10.2351	7.985	9.92649
7.99	10.3072	7.99	9.85439
7.995	10.3613	7.995	9.80017
8	10.4021	8	9.75936
8.005	10.4328	8.005	9.7286
8.01	10.456	8.01	9.70539
8.015	10.4735	8.015	9.68784
8.02	10.2482	8.02	9.91306
8.025	10.3208	8.025	9.84043
8.03	9.98839	8.03	10.1728
8.035	10.5081	8.035	9.65304
8.04	10.5161	8.04	9.64498
8.045	10.5222	8.045	9.63879
8.05	10.5269	8.05	9.634
8.055	10.5306	8.055	9.63027
8.06	9.90804	8.06	10.2528
8.065	10.0645	8.065	10.0963
8.07	10.182	8.07	9.97876
8.075	10.2702	8.075	9.89046
8.08	10.3365	8.08	9.8241
8.085	10.3864	8.085	9.77419
8.09	10.4239	8.09	9.73661
8.095	10.4522	8.095	9.70828
8.1	10.4735	8.1	9.68689
8.105	10.4897	8.105	9.67071
8.11	9.87643	8.11	10.2839
8.115	10.0399	8.115	10.1204
8.12	9.77568	8.12	10.3846
8.125	10.3465	8.125	9.81372
8.13	10.0059	8.13	10.1543
8.135	10.1324	8.135	10.0277
8.14	10.6144	8.14	9.54564
8.145	9.58171	8.145	10.5783
8.15	9.81248	8.15	10.3474
8.155	9.98568	8.155	10.1742
8.16	10.1157	8.16	10.0441
8.165	10.2134	8.165	9.94641
8.17	10.2867	8.17	9.87299
8.175	10.3419	8.175	9.81779
8.18	10.3834	8.18	9.77624
8.185	9.78914	8.185	10.3704
8.19	9.96687	8.19	10.1926
8.195	10.1003	8.195	10.0592
8.2	10.2005	8.2	9.95893
8.205	10.2758	8.205	9.8836
8.21	10.3323	8.21	9.82697
8.215	10.3749	8.215	9.78435
8.22	10.407	8.22	9.75225
8.225	10.4311	8.225	9.72803
8.23	10.4494	8.23	9.70972
8.235	9.83772	8.235	10.3213
8.24	10.0024	8.24	10.1566
8.245	10.126	8.245	10.033
8.25	10.2188	8.25	9.94008
8.255	10.2886	8.255	9.87027
8.26	10.341	8.26	9.81777
8.265	10.3805	8.265	9.77826
8.27	10.4102	8.27	9.74849
8.275	10.4326	8.275	9.72602
8.28	10.4496	8.28	9.70903
8.285	10.4624	8.285	9.69614
8.29	10.4721	8.29	9.68634
8.295	9.85411	8.295	10.3043
8.3	10.014	8.3	10.1444
8.305	10.134	8.305	10.0243
8.31	10.2241	8.31	9.93414
8.315	10.2919	8.315	9.86635
8.32	10.3428	8.32	9.81537
8.325	10.3811	8.325	9.777
8.33	10.41	8.33	9.74808
8.335	10.4318	8.335	9.72625
8.34	9.82275	8.34	10.3352
8.345	9.98938	8.345	10.1685
8.35	10.1145	8.35	10.0434
8.355	10.2084	8.355	9.94939
8.36	10.279	8.36	9.87876
8.365	10.3321	8.365	9.82564
8.37	10.372	8.37	9.78567
8.375	10.4021	8.375	9.75555
8.38	10.4247	8.38	9.73282
8.385	10.4419	8.385	9.71564
8.39	10.4549	8.39	9.70261
8.395	10.4647	8.395	9.69271
8.4	9.84674	8.4	10.3106
8.405	10.0067	8.405	10.1506
8.41	10.1267	8.41	10.0305
8.415	10.2169	8.415	9.9403
8.42	10.2847	8.42	9.8725
8.425	10.3356	8.425	9.82151
8.43	9.74845	8.43	10.4086
8.435	9.93148	8.435	10.2255
8.44	10.0689	8.44	10.0881
8.445	10.1721	8.445	9.98485
8.45	10.2496	8.45	9.9073
8.455	10.3078	8.455	9.849
8.46	10.3516	8.46	9.80514
8.465	10.3846	8.465	9.77211
8.47	10.4094	8.47	9.7472
8.475	10.4282	8.475	9.72838
8.48	10.4424	8.48	9.71413
8.485	10.4532	8.485	9.70331
8.49	10.4614	8.49	9.69506
8.495	9.84218	8.495	10.3142
8.5	10.0012	8.5	10.1552
8.505	10.1205	8.505	10.0358
8.51	10.2102	8.51	9.94606
8.515	10.2775	8.515	9.87865
8.52	10.3282	8.52	9.82796
8.525	10.3663	8.525	9.78981
8.53	10.395	8.53	9.76106
8.535	10.4166	8.535	9.73936
8.54	10.433	8.54	9.72295
8.545	9.81989	8.545	10.336
8.55	9.98346	8.55	10.1724
8.555	10.1063	8.555	10.0495
8.56	10.1985	8.56	9.95724
8.565	10.2678	8.565	9.8879
8.57	10.3199	8.57	9.83576
8.575	10.3591	8.575	9.79652
8.58	10.3886	8.58	9.76696
8.585	10.4108	8.585	9.74466
8.59	10.4276	8.59	9.72779
8.595	10.4404	8.595	9.71501
8.6	10.45	8.6	9.70529
8.605	10.4574	8.605	9.69787
8.61	9.83757	8.61	10.3176
8.615	9.99609	8.615	10.1591
8.62	10.1151	8.62	10.04
8.625	10.2045	8.625	9.95059
8.63	10.2716	8.63	9.88338
8.635	10.3221	8.635	9.83284
8.64	10.747	8.64	9.40786
8.645	10.2971	8.645	9.8578
8.65	10.3415	8.65	9.81326
8.655	10.375	8.655	9.77972
8.66	9.77479	8.66	10.3799
8.665	9.948	8.665	10.2067
8.67	10.078	8.67	10.0766
8.675	10.1757	8.675	9.97889
8.68	10.249	8.68	9.90549
8.685	10.3041	8.685	9.85031
8.69	10.3456	8.69	9.80879
8.695	10.3768	8.695	9.77752
8.7	10.4004	8.7	9.75394
8.705	10.4181	8.705	9.73612
8.71	10.4316	8.71	9.72262
8.715	10.4418	8.715	9.71237
8.72	9.82407	8.72	10.33
8.725	9.98418	8.725	10.1699
8.73	10.1044	8.73	10.0496
8.735	10.1946	8.735	9.95929
8.74	10.2625	8.74	9.89142
8.745	10.3135	8.745	9.84039
8.75	10.3518	8.75	9.80198
8.755	10.3807	8.755	9.77304
8.76	10.0155	8.76	10.1382
8.765	10.1236	8.765	10.03
8.77	10.2048	8.77	9.94874
8.775	10.2659	8.775	9.88767
8.78	9.68626	8.78	10.4672
8.785	9.87495	8.785	10.2785
8.79	10.0166	8.79	10.1368
8.795	10.1229	8.795	10.0304
8.8	10.2028	8.8	9.95047
8.805	10.2628	8.805	9.8904
8.81	10.308	8.81	9.84521
8.815	10.3419	8.815	9.81119
8.82	10.3675	8.82	9.78554
8.825	10.3868	8.825	9.76618
8.83	10.4014	8.83	9.75153
8.835	10.4125	8.835	9.74041
8.84	10.4209	8.84	9.73194
8.845	10.4274	8.845	9.72546
8.85	9.80682	8.85	10.3459
8.855	9.9648	8.855	10.1879
8.86	10.0834	8.86	10.0693
8.865	10.1725	8.865	9.98013
8.87	10.2394	8.87	9.91316
8.875	10.2897	8.875	9.86281
8.88	9.9406	8.88	10.2119
8.885	10.0608	8.885	10.0917
8.89	10.151	8.89	10.0014
8.895	10.2188	8.895	9.93352
8.9	10.2697	8.9	9.88251
8.905	9.68259	8.905	10.4696
8.91	9.86562	8.91	10.2865
8.915	10.003	8.915	10.1491
8.92	10.1062	8.92	10.0459
8.925	10.1836	8.925	9.96835
8.93	10.2419	8.93	9.91007
8.935	10.2857	8.935	9.86623
8.94	10.3186	8.94	9.83323
8.945	10.3434	8.945	9.80834
8.95	10.3622	8.95	9.78955
8.955	10.3764	8.955	9.77533
8.96	10.3871	8.96	9.76454
8.965	10.3953	8.965	9.75632
8.97	10.4015	8.97	9.75002
8.975	10.4063	8.975	9.74517
8.98	9.78455	8.98	10.3669
8.985	9.94161	8.985	10.2098
8.99	10.0595	8.99	10.0918
8.995	9.76112	8.995	10.3902
9	9.9193	9	10.2319
9.005	10.425	9.005	9.72618
9.01	10.0356	9.01	10.1156
9.015	10.1255	9.015	10.0256
9.02	10.193	9.02	9.95799
9.025	10.2438	9.025	9.90716
9.03	10.282	9.03	9.86892
9.035	10.3108	9.035	9.8401
9.04	10.3325	9.04	9.81837
9.045	10.3488	9.045	9.80194
9.05	9.73575	9.05	10.415
9.055	9.89932	9.055	10.2513
9.06	10.0221	9.06	10.1285
9.065	10.1143	9.065	10.0362
9.07	10.1836	9.07	9.96692
9.075	10.2357	9.075	9.9148
9.08	10.2748	9.08	9.87559
9.085	10.3043	9.085	9.84605
9.09	10.3265	9.09	9.82377
9.095	10.3433	9.095	9.80694
9.1	10.356	9.1	9.79418
9.105	10.3657	9.105	9.78449
9.11	10.373	9.11	9.7771
9.115	10.3786	9.115	9.77143
9.12	9.75748	9.12	10.3925
9.125	9.915	9.125	10.235
9.13	10.0333	9.13	10.1166
9.135	10.1221	9.135	10.0278
9.14	10.1888	9.14	9.96103
9.145	10.2389	9.145	9.91083
9.15	10.2766	9.15	9.87305
9.155	10.305	9.155	9.8446
9.16	10.3265	9.16	9.82313
9.165	10.3426	9.165	9.8069
9.17	9.7294	9.17	10.4201
9.175	9.89286	9.175	10.2566
9.18	10.0156	9.18	10.1338
9.185	10.1077	9.185	10.0416
9.19	10.1769	9.19	9.97237
9.195	10.2289	9.195	9.92029
9.2	10.2681	9.2	9.88111
9.205	10.2975	9.205	9.8516
9.21	10.3197	9.21	9.82935
9.215	10.3365	9.215	9.81253
9.22	10.3492	9.22	9.79979
9.225	10.3588	9.225	9.79012
9.23	10.3661	9.23	9.78274
9.235	10.3718	9.235	9.77708
9.24	10.3761	9.24	9.77271
9.245	10.3794	9.245	9.7693
9.25	9.75656	9.25	10.3921
9.255	9.91281	9.255	10.2358
9.26	10.0301	9.26	10.1185
9.265	10.5051	9.265	9.6434
9.27	10.0927	9.27	10.0558
9.275	10.1653	9.275	9.98307
9.28	10.6069	9.28	9.54148
9.285	10.1693	9.285	9.97897
9.29	10.6101	9.29	9.53815
9.295	10.5589	9.295	9.58928
9.3	10.5207	9.3	9.6275
9.305	10.4921	9.305	9.65605
9.31	10.4707	9.31	9.67733
9.315	10.4548	9.315	9.69317
9.32	9.81755	9.32	10.3304
9.325	9.96296	9.325	10.1849
9.33	10.0721	9.33	10.0757
9.335	10.1541	9.335	9.99368
9.34	10.2157	9.34	9.93203
9.345	10.262	9.345	9.88567
9.35	10.2969	9.35	9.85077
9.355	10.3231	9.355	9.82448
9.36	10.3429	9.36	9.80464
9.365	10.3579	9.365	9.78964
9.37	10.3692	9.37	9.77826
9.375	10.3778	9.375	9.76961
9.38	10.3843	9.38	9.76299
9.385	10.3894	9.385	9.75791
9.39	9.76778	9.39	10.3795
9.395	9.92496	9.395	10.2222
9.4	10.043	9.4	10.1042
9.405	10.1316	9.405	10.0155
9.41	10.1981	9.41	9.94891
9.415	10.2482	9.415	9.89883
9.42	10.2858	9.42	9.86114
9.425	10.3141	9.425	9.83276
9.43	10.3355	9.43	9.81135
9.435	10.3516	9.435	9.79517
9.44	10.3638	9.44	9.78292
9.445	10.3731	9.445	9.7736
9.45	10.3801	9.45	9.7665
9.455	10.3855	9.455	9.76105
9.46	10.3897	9.46	9.75684
9.465	9.76743	9.465	10.379
9.47	9.92413	9.47	10.2223
9.475	10.0418	9.475	10.1046
9.48	10.1301	9.48	10.0162
9.485	10.1964	9.485	9.94984
9.49	10.2463	9.49	9.89992
9.495	10.2838	9.495	9.86235
9.5	10.3121	9.5	9.83406
9.505	10.3333	9.505	9.81272
9.51	10.3494	9.51	9.79659
9.515	10.3616	9.515	9.78438
9.52	10.3708	9.52	9.7751
9.525	10.3778	9.525	9.76802
9.53	9.75774	9.53	10.3881
9.535	9.91605	9.535	10.2297
9.54	10.0349	9.54	10.1108
9.545	10.1241	9.545	10.0215
9.55	10.1911	9.55	9.95446
9.555	10.2415	9.555	9.90403
9.56	10.6664	9.56	9.47914
9.565	10.2163	9.565	9.92916
9.57	10.2607	9.57	9.88469
9.575	10.6811	9.575	9.46428
9.58	10.2276	9.58	9.91766
9.585	10.6565	9.585	9.48876
9.59	10.2094	9.59	9.93578
9.595	10.2561	9.595	9.88906
9.6	10.6781	9.6	9.46696
9.605	10.226	9.605	9.91907
9.61	9.64334	9.61	10.5017
9.615	10.2167	9.615	9.92825
9.62	9.878	9.62	10.2669
9.625	10.3929	9.625	9.75194
9.63	10.0104	9.63	10.1344
9.635	10.1054	9.635	10.0393
9.64	10.5638	9.64	9.58089
9.645	10.1389	9.645	10.0058
9.65	10.5891	9.65	9.55552
9.655	10.545	9.655	9.59957
9.66	10.512	9.66	9.63248
9.665	10.4874	9.665	9.65705
9.67	10.469	9.67	9.67536
9.675	10.4554	9.675	9.68897
9.68	9.81973	9.68	10.3245
9.685	9.96639	9.685	10.1778
9.69	10.0765	9.69	10.0677
9.695	9.77222	9.695	10.3719
9.7	9.92599	9.7	10.2181
9.705	10.4284	9.705	9.71565
9.71	10.0364	9.71	10.1075
9.715	10.5114	9.715	9.63249
9.72	10.0989	9.72	10.0449
9.725	10.1716	9.725	9.97225
9.73	10.2261	9.73	9.91764
9.735	10.2672	9.735	9.87656
9.74	10.298	9.74	9.84563
9.745	10.3213	9.745	9.82232
9.75	10.3388	9.75	9.80472
9.755	9.72663	9.755	10.4169
9.76	9.89085	9.76	10.2526
9.765	10.0141	9.765	10.1293
9.77	10.1067	9.77	10.0367
9.775	10.1762	9.775	9.96712
9.78	10.2284	9.78	9.91482
9.785	10.2677	9.785	9.87548
9.79	10.2973	9.79	9.84586
9.795	10.3196	9.795	9.82353
9.8	10.3364	9.8	9.80667
9.805	10.3491	9.805	9.7939
9.81	10.3587	9.81	9.78421
9.815	10.3661	9.815	9.77683
9.82	10.3717	9.82	9.77117
9.825	10.376	9.825	9.76681
9.83	10.3793	9.83	9.76343
9.835	10.3819	9.835	9.76077
9.84	10.384	9.84	9.75866
9.845	10.3856	9.845	9.75697
9.85	9.76148	9.85	10.3811
9.855	9.91675	9.855	10.2257
9.86	10.0333	9.86	10.1091
9.865	10.1208	9.865	10.0216
9.87	10.1866	9.87	9.95577
9.875	10.236	9.875	9.90631
9.88	10.2731	9.88	9.8691
9.885	10.3011	9.885	9.84107
9.89	10.3222	9.89	9.81994
9.895	10.3381	9.895	9.80397
9.9	10.3501	9.9	9.79188
9.905	10.3593	9.905	9.7827
9.91	10.3662	9.91	9.77569
9.915	10.3715	9.915	9.77033
9.92	9.75015	9.92	10.3917
9.925	9.90749	9.925	10.2343
9.93	10.0256	9.93	10.1161
9.935	10.1143	9.935	10.0274
9.94	10.1809	9.94	9.96074
9.945	10.2309	9.945	9.91063
9.95	10.2686	9.95	9.87293
9.955	10.2969	9.955	9.84454
9.96	10.3183	9.96	9.82314
9.965	10.3344	9.965	9.80697
9.97	10.3466	9.97	9.79473
9.975	10.3558	9.975	9.78543
9.98	10.7498	9.98	9.3914
9.985	10.6635	9.985	9.47762
9.99	10.5989	9.99	9.54218
9.995	10.5506	9.995	9.59048
10	-2.6349	10	-3.52272
10.005	-3.30485	10.005	-2.88772
10.01	-3.57525	10.01	-2.65228
10.015	-3.40045	10.015	-2.86204
10.02	-3.27361	10.02	-3.02384
10.025	-3.18275	10.025	-3.14966
10.03	-3.11886	10.03	-3.24851
10.035	-3.0752	10.035	-3.32712
10.04	-3.04673	10.04	-3.39055
10.045	-3.41658	10.045	-3.05566
10.05	-3.94184	10.05	-2.56535
10.055	-3.32984	10.055	-3.21232
10.06	-3.25696	10.06	-3.32015
10.065	-3.59351	10.065	-3.01856
10.07	-3.08138	10.07	-3.56565
10.075	-3.08341	10.075	-3.59858
10.08	-3.71467	10.08	-3.00227
10.085	-1.90371	10.085	-1.51739
10.09	-2.20063	10.09	-2.05908
10.095	-2.42757	10.095	-2.4698
10.1	-1.94905	10.1	-0.104479
10.105	-1.85319	10.105	-1.3779
10.11	-1.12747	10.11	0.335345
10.115	0.0503812	10.115	1.00709
10.12	-1.34679	10.12	0.481093
10.125	-1.77559	10.125	-0.541074
10.13	-0.435978	10.13	0.353302
10.135	-1.08634	10.135	-0.631186
10.14	-0.151412	10.14	0.530003
10.145	0.176058	10.145	1.79512
10.15	-0.610095	10.15	0.465448
10.155	2.12695	10.155	2.79465
10.16	0.248369	10.16	1.86096
10.165	1.12401	10.165	2.19851
10.17	3.21802	10.17	4.36583
10.175	3.38951	10.175	4.10929
10.18	1.86321	10.18	2.26177
10.185	3.80673	10.185	4.44124
10.19	3.23992	10.19	4.81934
10.195	3.44862	10.195	4.48999
10.2	5.04257	10.2	6.15728
10.205	4.83914	10.205	5.52584
10.21	4.69718	10.21	5.06268
10.215	7.6936	10.215	8.29509
10.22	6.89122	10.22	7.18669
10.225	4.63476	10.225	4.70052
10.23	6.03087	10.23	6.40123
10.235	6.06616	10.235	5.40808
10.24	5.72153	10.24	5.05566
10.245	8.5661	10.245	8.37126
10.25	7.64999	10.25	7.32543
10.255	6.97376	10.255	6.55173
10.26	11.2351	10.26	11.2169
10.265	10.1178	10.265	9.14546
10.27	14.292	10.27	12.5938
10.275	11.4737	10.275	11.2456
10.28	14.099	10.28	12.179
10.285	13.679	10.285	12.0173
10.29	11.7243	10.29	10.2561
10.295	14.3741	10.295	11.5031
10.3	11.6817	10.3	10.5368
10.305	11.9623	10.305	10.8654
10.31	14.251	10.31	12.4158
10.315	12.2951	10.315	10.6699
10.32	12.892	10.32	10.6501
10.325	15.036	10.325	12.3213
10.33	13.3588	10.33	10.2792
10.335	13.3959	10.335	10.8061
10.34	15.5021	10.34	12.5056
10.345	15.462	10.345	12.1502
10.35	12.7854	10.35	11.2515
10.355	13.7037	10.355	11.0056
10.36	12.5169	10.36	9.41813
10.365	12.2965	10.365	10.9118
10.37	14.8331	10.37	12.7133
10.375	15.116	10.375	12.4345
10.38	13.3073	10.38	10.9681
10.385	15.6803	10.385	12.8238
10.39	15.4538	10.39	12.9728
10.395	17.3627	10.395	14.3892
10.4	15.1227	10.4	12.5435
10.405	13.4547	10.405	11.171
10.41	16.559	10.41	12.4719
10.415	14.5924	10.415	11.1628
10.42	13.1296	10.42	10.193
10.425	13.71	10.425	11.1429
10.43	12.5066	10.43	10.2165
10.435	12.0032	10.435	9.14678
10.44	14.5868	10.44	12.0692
10.445	13.235	10.445	10.9713
10.45	12.2334	10.45	10.16
10.455	13.1599	10.455	11.229
10.46	12.2163	10.46	10.3921
10.465	11.5209	10.465	9.77658
10.47	13.3027	10.47	10.3671
10.475	11.3648	10.475	10.807
10.48	11.5545	10.48	9.5186
10.485	14.4168	10.485	12.5186
10.49	13.2742	10.49	11.4792
10.495	12.0429	10.495	11.099
10.5	13.1792	10.5	12.1097
10.505	12.0062	10.505	11.6162
10.51	13.1863	10.51	12.5421
10.515	12.4332	10.515	11.5981
10.52	9.8287	10.52	9.62413
10.525	11.8247	10.525	10.852
10.53	10.8166	10.53	11.0015
10.535	10.9351	10.535	10.2644
10.54	11.6868	10.54	12.4048
10.545	11.3762	10.545	11.608
10.55	10.7692	10.55	11.4101
10.555	13.2655	10.555	14.9971
10.56	12.2256	10.56	14.0215
10.565	15.0228	10.565	16.3999
10.57	12.96	10.57	15.7666
10.575	11.3911	10.575	12.0084
10.58	11.7595	10.58	14.303
10.585	11.1567	10.585	13.6273
10.59	9.43402	10.59	11.086
10.595	10.3105	10.595	13.6701
10.6	10.0888	10.6	13.2115
10.605	9.93047	10.605	12.8856
10.61	10.4453	10.61	12.0336
10.615	8.31221	10.615	10.6091
10.62	9.89124	10.62	13.0206
10.625	9.16161	10.625	10.1368
10.63	9.26824	10.63	10.6479
10.635	10.6348	10.635	13.1018
10.64	9.12037	10.64	10.8752
10.645	9.26174	10.645	11.2561
10.65	8.989	10.65	11.9469
10.655	7.89606	10.655	10.049
10.66	10.2575	10.66	12.1033
10.665	8.47913	10.665	10.5874
10.67	9.19142	10.67	10.7326
10.675	7.68663	10.675	9.57623
10.68	8.60413	10.68	9.99111
10.685	7.64022	10.685	8.65004
10.69	8.58153	10.69	9.30829
10.695	7.24854	10.695	8.53671
10.7	6.62953	10.7	7.57484
10.705	7.4426	10.705	8.90447
10.71	8.44766	10.71	9.53302
10.715	7.16252	10.715	8.73921
10.72	8.24484	10.72	9.4261
10.725	7.40461	10.725	8.28911
10.73	8.43876	10.73	9.1005
10.735	7.17548	10.735	8.44386
10.74	6.60884	10.74	7.56827
10.745	7.84819	10.745	8.57573
10.75	7.12579	10.75	7.67921
10.755	6.58294	10.755	7.00559
10.76	8.22712	10.76	7.7776
10.765	6.801	10.765	7.71186
10.77	6.35367	10.77	7.03808
10.775	7.68255	10.775	8.19694
10.78	7.02732	10.78	7.414
10.785	6.5349	10.785	6.82561
10.79	7.82999	10.79	8.04853
10.795	7.14943	10.795	7.31367
10.8	7.02498	10.8	6.37441
10.805	8.2142	10.805	7.71605
10.81	7.45426	10.81	7.07025
10.815	6.88335	10.815	6.58475
10.82	8.50655	10.82	7.49793
10.825	9.35565	10.825	8.57806
10.83	8.34066	10.83	7.73616
10.835	9.00536	10.835	9.00755
10.84	8.0935	10.84	8.06771
10.845	7.79565	10.845	6.97479
10.85	8.85489	10.85	8.20127
10.855	8.38449	10.855	7.08223
10.86	9.31434	10.86	8.28914
10.865	8.35997	10.865	7.54238
10.87	8.03028	10.87	6.59432
10.875	7.40028	10.875	6.26408
10.88	7.96683	10.88	8.30623
10.885	7.75023	10.885	7.17571
10.89	8.48351	10.89	8.76099
10.895	8.15057	10.895	7.52924
10.9	9.18357	10.9	8.65168
10.905	8.69357	10.905	7.45467
10.91	8.33034	10.91	6.55085
10.915	9.34064	10.915	7.91925
10.92	8.44668	10.92	7.29369
10.925	9.82777	10.925	8.10199
10.93	8.59153	10.93	7.67678
10.935	7.90499	10.935	7.11551
10.94	9.44165	10.94	7.97205
10.945	10.226	10.945	9.0099
10.95	9.1627	10.95	8.13647
10.955	10.4168	10.955	8.75894
10.96	9.32393	10.96	7.95587
10.965	10.5559	10.965	8.63113
10.97	9.44642	10.97	7.86766
10.975	8.37508	10.975	7.53272
10.98	9.47769	10.98	8.70464
10.985	8.65308	10.985	7.93182
10.99	8.4209	10.99	6.96441
10.995	9.91656	10.995	7.89831
11	10.6703	11	8.99427
11.005	9.58406	11.005	8.16453
11.01	10.4341	11.01	9.20681
11.015	9.4202	11.015	8.33682
11.02	9.04607	11.02	7.29659
11.025	9.42291	11.025	9.18836
11.03	8.67732	11.03	8.33225
11.035	8.11752	11.035	7.68938
11.04	9.36248	11.04	8.87185
11.045	8.64472	11.045	8.10706
11.05	8.49277	11.05	7.14575
11.055	9.66175	11.055	8.47128
11.06	10.5524	11.06	9.47919
11.065	9.56902	11.065	8.58351
11.07	10.8833	11.07	9.18948
11.075	9.83565	11.075	8.37423
11.08	10.0893	11.08	10.053
11.085	9.25148	11.085	9.03718
11.09	8.62259	11.09	8.27465
11.095	9.81581	11.095	9.36748
11.1	9.05935	11.1	8.53554
11.105	8.49151	11.105	7.91092
11.11	9.73055	11.11	9.1072
11.115	9.00847	11.115	8.35287
11.12	8.46645	11.12	7.78648
11.125	9.72486	11.125	9.02644
11.13	8.63038	11.13	8.69185
11.135	8.19094	11.135	8.05841
11.14	7.86092	11.14	7.58271
11.145	9.27835	11.145	8.89071
11.15	8.6901	11.15	8.22021
11.155	8.24849	11.155	7.71673
11.16	7.91685	11.16	7.33852
11.165	8.70761	11.165	9.34514
11.17	8.27265	11.17	8.57535
11.175	7.94602	11.175	7.99743
11.18	8.97909	11.18	9.61574
11.185	8.48448	11.185	8.79616
11.19	8.11313	11.19	8.1809
11.195	9.11267	11.195	9.77124
11.2	8.59293	11.2	8.93069
11.205	8.20276	11.205	8.29973
11.21	7.90976	11.21	7.82597
11.215	9.35503	11.215	9.1355
11.22	8.78774	11.22	8.46623
11.225	8.36192	11.225	7.96375
11.23	7.65526	11.23	7.97331
11.235	7.50678	11.235	7.59808
11.24	9.06046	11.24	8.98154
11.245	8.5745	11.245	8.36773
11.25	8.20969	11.25	7.90687
11.255	6.92333	11.255	8.57314
11.26	6.96336	11.26	8.0672
11.265	8.65845	11.265	9.35264
11.27	8.27856	11.27	8.66533
11.275	7.99333	11.275	8.14937
11.28	7.39214	11.28	8.14886
11.285	8.9882	11.285	9.43152
11.29	8.53405	11.29	8.74215
11.295	7.8062	11.295	8.6116
11.3	7.64189	11.3	8.13136
11.305	9.18375	11.305	9.43611
11.31	8.68898	11.31	8.76333
11.315	8.31763	11.315	8.2583
11.32	7.02641	11.32	8.8915
11.325	7.06285	11.325	8.36082
11.33	7.08991	11.33	7.96236
11.335	8.77533	11.335	9.32846
11.34	8.00129	11.34	9.08866
11.345	7.80237	11.345	8.52652
11.35	7.65292	11.35	8.10449
11.355	8.81903	11.355	9.83988
11.36	8.42434	11.36	9.10825
11.365	8.12809	11.365	8.55913
11.37	7.90566	11.37	8.14687
11.375	7.7386	11.375	7.83727
11.38	9.27846	11.38	9.27006
11.385	8.78225	11.385	8.69336
11.39	7.78439	11.39	8.88593
11.395	7.65905	11.395	8.4067
11.4	7.56482	11.4	8.04689
11.405	8.77238	11.405	9.82898
11.41	8.40882	11.41	9.13242
11.415	8.13595	11.415	8.60964
11.42	7.93109	11.42	8.21717
11.425	7.77725	11.425	7.92246
11.43	7.66167	11.43	7.70105
11.435	7.57478	11.435	7.53463
11.44	9.17481	11.44	9.07484
11.445	8.72376	11.445	8.57875
11.45	8.38528	11.45	8.20633
11.455	8.13125	11.455	7.92667
11.46	7.94054	11.46	7.71657
11.465	7.17185	11.465	8.18413
11.47	7.21842	11.47	7.91117
11.475	7.25316	11.475	7.70611
11.48	7.27904	11.48	7.55196
11.485	8.96366	11.485	9.10139
11.49	8.57606	11.49	8.61225
11.495	8.28521	11.495	8.24505
11.5	8.0669	11.5	7.96933
11.505	7.90301	11.505	7.76221
11.51	8.16687	11.51	7.21959
11.515	7.98274	11.515	7.19416
11.52	7.84447	11.52	7.17475
11.525	9.40601	11.525	8.82527
11.53	8.30064	11.53	9.03743
11.535	8.09475	11.535	8.57297
11.54	8.32712	11.54	7.83737
11.545	8.1194	11.545	7.66722
11.55	7.96345	11.55	7.5393
11.555	7.84635	11.555	7.44305
11.56	7.75838	11.56	7.37055
11.565	7.69226	11.565	7.31586
11.57	9.30792	11.57	8.93993
11.575	8.86864	11.575	8.50681
11.58	8.30052	11.58	8.4202
11.585	8.11572	11.585	8.11355
11.59	7.97698	11.59	7.88327
11.595	7.87281	11.595	7.71027
11.6	7.79455	11.6	7.58023
11.605	7.73572	11.605	7.48241
11.61	7.69148	11.61	7.40876
11.615	8.04511	11.615	6.96628
11.62	7.92835	11.62	7.016
11.625	7.84065	11.625	7.05299
11.63	7.77474	11.63	7.08045
11.635	9.39059	11.635	8.76615
11.64	8.95147	11.64	8.37926
11.645	9.00897	11.645	7.70187
11.65	8.28317	11.65	7.96238
11.655	8.12058	11.655	7.77562
11.66	7.76	11.66	7.87381
11.665	7.73086	11.665	7.70578
11.67	7.70889	11.67	7.57948
11.675	8.07926	11.675	7.09754
11.68	7.97505	11.68	7.11769
11.685	7.89679	11.685	7.13252
11.69	9.50339	11.69	8.80878
11.695	9.05735	11.695	8.41482
11.7	8.72273	11.7	8.11911
11.705	8.47168	11.705	7.89707
11.71	8.67024	11.71	7.34334
11.715	7.81173	11.715	7.93514
11.72	7.79103	11.72	7.75547
11.725	7.77541	11.725	7.62047
11.73	7.76361	11.73	7.51896
11.735	7.75467	11.735	7.44259
11.74	8.13481	11.74	6.99811
11.745	8.03797	11.745	7.04636
11.75	7.96524	11.75	7.0823
11.755	7.91061	11.755	7.10901
11.76	7.86954	11.76	7.12879
11.765	7.83865	11.765	7.14337
11.77	7.81539	11.77	7.15406
11.775	9.46325	11.775	8.82723
11.78	9.04819	11.78	8.43097
11.785	8.49828	11.785	8.37209
11.79	8.32718	11.79	8.08629
11.795	8.19879	11.795	7.87171
11.8	8.48937	11.8	7.32359
11.805	8.32536	11.805	7.29415
11.81	8.20229	11.81	7.27183
11.815	8.10991	11.815	7.25486
11.82	8.04055	11.82	7.24191
11.825	7.98846	11.825	7.23196
11.83	7.94932	11.83	7.22427
11.835	7.91989	11.835	7.21827
11.84	7.89775	11.84	7.21355
11.845	7.25559	11.845	7.83525
11.85	7.39716	11.85	7.67803
11.855	7.50327	11.855	7.55988
11.86	7.58278	11.86	7.47104
11.865	7.64234	11.865	7.40419
11.87	9.35233	11.87	9.01921
11.875	9.37083	11.875	8.19243
11.88	9.00278	11.88	7.954
11.885	8.72668	11.885	7.77497
11.89	8.51956	11.89	7.64048
11.895	8.36416	11.895	7.53941
11.9	8.24756	11.9	7.46339
11.905	8.16006	11.905	7.40617
11.91	8.09437	11.91	7.36305
11.915	8.04505	11.915	7.3305
11.92	7.76948	11.92	7.5444
11.925	7.80415	11.925	7.46322
11.93	7.83009	11.93	7.40212
11.935	7.46255	11.935	7.74304
11.94	7.56871	11.94	7.61665
11.945	7.64827	11.945	7.52165
11.95	7.70788	11.95	7.45019
11.955	7.75254	11.955	7.39639
11.96	8.17292	11.96	6.96888
11.965	8.10628	11.965	7.02991
11.97	8.05625	11.97	7.07547
11.975	8.01868	11.975	7.10943
11.98	7.99044	11.98	7.13469
11.985	7.34372	11.985	7.77891
11.99	7.4819	11.99	7.6386
11.995	9.25088	11.995	9.19855
12	8.92668	12	8.71743
12.005	8.68349	12.005	8.3564
12.01	8.50106	12.01	8.08544
12.015	8.36421	12.015	7.88204
12.02	8.26153	12.02	7.72929
12.025	8.18448	12.025	7.61454
12.03	8.12666	12.03	7.52829
12.035	8.08325	12.035	7.46342
12.04	8.05066	12.04	7.41457
12.045	8.02618	12.045	7.37775
12.05	8.00779	12.05	7.34995
12.055	7.99395	12.055	7.3289
12.06	7.98354	12.06	7.31293
12.065	7.97569	12.065	7.30077
12.07	7.34429	12.07	7.91693
12.075	7.49397	12.075	7.7556
12.08	7.60619	12.08	7.63441
12.085	7.69032	12.085	7.54333
12.09	7.75338	12.09	7.47483
12.095	7.80064	12.095	7.42327
12.1	7.83604	12.1	7.38441
12.105	7.86256	12.105	7.35508
12.11	7.8824	12.11	7.33289
12.115	7.89725	12.115	7.31607
12.12	7.90835	12.12	7.30326
12.125	7.52969	12.125	7.68041
12.13	7.62752	12.13	7.58122
12.135	7.70085	12.135	7.50664
12.14	7.75582	12.14	7.45052
12.145	7.797	12.145	7.40824
12.15	7.20237	12.15	8.00183
12.155	8.00511	12.155	7.19807
12.16	9.64925	12.16	8.88374
12.165	8.60597	12.165	9.12241
12.17	8.44676	12.17	8.67797
12.175	8.32733	12.175	8.34448
12.18	8.62468	12.18	7.70724
12.185	8.46581	12.185	7.61101
12.19	8.34664	12.19	7.53867
12.195	8.25724	12.195	7.48425
12.2	7.80323	12.2	7.83021
12.205	7.84456	12.205	7.70765
12.21	7.87554	12.21	7.61556
12.215	7.89876	12.215	7.54633
12.22	7.91615	12.22	7.49424
12.225	7.92917	12.225	7.455
12.23	7.93892	12.23	7.4254
12.235	7.94621	12.235	7.40304
12.24	7.56471	12.24	7.77304
12.245	7.66043	12.245	7.66852
12.25	7.73221	12.25	7.58995
12.255	7.78601	12.255	7.53086
12.26	7.82635	12.26	7.48638
12.265	7.2311	12.265	8.07833
12.27	8.42035	12.27	6.88642
12.275	7.68164	12.275	7.62294
12.28	7.75086	12.28	7.5519
12.285	7.80276	12.285	7.49844
12.29	7.84166	12.29	7.45819
12.295	7.87081	12.295	7.42783
12.3	7.50571	12.3	7.79184
12.305	7.61373	12.305	7.68282
12.31	7.69472	12.31	7.60088
12.315	7.75545	12.315	7.53927
12.32	7.80097	12.32	7.49289
12.325	7.83509	12.325	7.45793
12.33	7.86066	12.33	7.43155
12.335	7.87981	12.335	7.4116
12.34	7.89416	12.34	7.39647
12.345	7.9049	12.345	7.38496
12.35	7.91293	12.35	7.37616
12.355	7.53199	12.355	7.75633
12.36	8.01507	12.36	7.27249
12.365	7.9955	12.365	7.2913
12.37	7.9808	12.37	7.30525
12.375	7.34427	12.375	7.94102
12.38	7.49013	12.38	7.79441
12.385	7.5995	12.385	7.68429
12.39	7.6815	12.39	7.60153
12.395	7.74299	12.395	7.5393
12.4	7.78908	12.4	7.49246
12.405	7.82362	12.405	7.45716
12.41	7.84951	12.41	7.43052
12.415	7.48196	12.415	7.79733
12.42	7.58814	12.42	7.6904
12.425	7.66775	12.425	7.61003
12.43	7.72744	12.43	7.5496
12.435	7.77218	12.435	7.5041
12.44	7.80572	12.44	7.46982
12.445	7.83085	12.445	7.44394
12.45	7.84967	12.45	7.42436
12.455	7.86377	12.455	7.40951
12.46	7.87432	12.46	7.39821
12.465	7.88221	12.465	7.38957
12.47	7.88811	12.47	7.38292
12.475	7.89251	12.475	7.37777
12.48	7.89579	12.48	7.37375
12.485	7.89822	12.485	7.37056
12.49	7.90003	12.49	7.368
12.495	7.27588	12.495	7.9914
12.5	7.43102	12.5	7.83551
12.505	8.17283	12.505	7.09295
12.51	7.48042	12.51	7.78462
12.515	8.20984	12.515	7.05445
12.52	7.50813	12.52	7.75541
12.525	9.27049	12.525	9.32309
12.53	8.94136	12.53	8.84781
12.535	8.69452	12.535	8.49121
12.54	8.50938	12.54	8.22361
12.545	8.37052	12.545	8.02276
12.55	8.26637	12.55	7.87198
12.555	8.18826	12.555	7.75875
12.56	8.12967	12.56	7.67369
12.565	8.08573	12.565	7.60974
12.57	8.43971	12.57	7.17469
12.575	8.32333	12.575	7.23012
12.58	8.23604	12.58	7.27155
12.585	8.17057	12.585	7.30247
12.59	7.73452	12.59	7.71247
12.595	7.78934	12.595	7.63795
12.6	7.83045	12.6	7.58192
12.605	7.86128	12.605	7.53975
12.61	7.8844	12.61	7.50798
12.615	7.90174	12.615	7.48401
12.62	7.91474	12.62	7.46588
12.625	7.92448	12.625	7.45214
12.63	7.93179	12.63	7.44169
12.635	7.93726	12.635	7.4337
12.64	7.94136	12.64	7.42757
12.645	7.94444	12.645	7.42283
12.65	7.94674	12.65	7.41912
12.655	7.94846	12.655	7.4162
12.66	7.71122	12.66	7.65239
12.665	8.40016	12.665	6.96251
12.67	7.66812	12.67	7.6937
12.675	7.74235	12.675	7.61868
12.68	8.03656	12.68	7.32373
12.685	8.0158	12.685	7.34378
12.69	7.37475	12.69	7.98416
12.695	7.75576	12.695	7.60249
12.7	7.56158	12.7	7.79603
12.705	7.27039	12.705	8.08659
12.71	7.82082	12.71	7.53554
12.715	7.85176	12.715	7.50398
12.72	7.87496	12.72	7.48017
12.725	7.89236	12.725	7.46216
12.73	7.90541	12.73	7.44851
12.735	7.91519	12.735	7.43813
12.74	7.92252	12.74	7.4302
12.745	7.92801	12.745	7.42411
12.75	7.93212	12.75	7.41939
12.755	7.93521	12.755	7.41571
12.76	7.93751	12.76	7.41281
12.765	7.93924	12.765	7.41049
12.77	7.94053	12.77	7.4086
12.775	7.94149	12.775	7.40704
12.78	7.94221	12.78	7.40572
12.785	7.94274	12.785	7.40459
12.79	7.94314	12.79	7.4036
12.795	7.94343	12.795	7.40271
12.8	7.5567	12.8	7.78885
12.805	8.03545	12.805	7.30949
12.81	8.01265	12.81	7.3317
12.815	7.99555	12.815	7.34821
12.82	7.98271	12.82	7.36044
12.825	6.30769	12.825	5.70408
12.83	6.70229	12.83	6.11254
12.835	6.99821	12.835	6.41872
12.84	7.22013	12.84	6.64819
12.845	7.38655	12.845	6.82013
12.85	7.51134	12.85	6.94892
12.855	7.6049	12.855	7.04535
12.86	7.67506	12.86	7.1175
12.865	7.72765	12.865	7.17146
12.87	7.76707	12.87	7.21176
12.875	7.79661	12.875	7.24182
12.88	7.81874	12.88	7.26421
12.885	7.83531	12.885	7.28083
12.89	7.84772	12.89	7.29314
12.895	7.23152	12.895	7.92768
12.9	7.39262	12.9	7.78015
12.905	7.51342	12.905	7.66935
12.91	7.60399	12.91	7.58608
12.915	7.6719	12.915	7.52346
12.92	7.72281	12.92	7.47634
12.925	7.76096	12.925	7.44083
12.93	7.78955	12.93	7.41404
12.935	7.81097	12.935	7.39379
12.94	7.82701	12.94	7.37843
12.945	7.83901	12.945	7.36675
12.95	7.84799	12.95	7.35783
12.955	7.8547	12.955	7.35098
12.96	7.85971	12.96	7.34567
12.965	7.86344	12.965	7.34153
12.97	7.86621	12.97	7.33826
12.975	7.86827	12.975	7.33565
12.98	7.86979	12.98	7.33353
12.985	7.8709	12.985	7.33177
12.99	7.87171	12.99	7.33029
12.995	7.87229	12.995	7.32902
13	7.8727	13	7.3279
13.005	7.87299	13.005	7.3269
13.01	7.87318	13.01	7.32599
13.015	7.87329	13.015	7.32514
13.02	7.87336	13.02	7.32434
13.025	7.87338	13.025	7.32358
13.03	7.87337	13.03	7.32285
13.035	7.87334	13.035	7.32213
13.04	7.87329	13.04	7.32144
13.045	7.87323	13.045	7.32075
13.05	7.87316	13.05	7.32007
13.055	7.87308	13.055	7.3194
13.06	7.873	13.06	7.31874
13.065	7.87292	13.065	7.31807
13.07	7.87283	13.07	7.31742
13.075	9.53813	13.075	8.98215
13.08	9.13621	13.08	8.57967
13.085	8.83476	13.085	8.27767
13.09	8.60867	13.09	8.05102
13.095	8.4391	13.095	7.88089
13.1	8.31192	13.1	7.75315
13.105	8.21652	13.105	7.6572
13.11	8.14497	13.11	7.5851
13.115	8.0913	13.115	7.53087
13.12	8.05104	13.12	7.49006
13.125	8.02085	13.125	7.45931
13.13	7.99819	13.13	7.4361
13.135	7.9812	13.135	7.41856
13.14	7.96844	13.14	7.40525
13.145	7.95887	13.145	7.39513
13.15	7.56474	13.15	7.77434
13.155	7.65101	13.155	7.67674
13.16	7.7157	13.16	7.60339
13.165	7.76421	13.165	7.54824
13.17	7.80059	13.17	7.50674
13.175	7.82787	13.175	7.47546
13.18	7.22284	13.18	8.07734
13.185	8.01782	13.185	7.27986
13.19	7.36529	13.19	7.93035
13.195	8.12464	13.195	7.16933
13.2	8.07088	13.2	7.22169
13.205	7.40507	13.205	7.8863
13.21	8.15446	13.21	7.13586
13.215	8.09322	13.215	7.19616
13.22	8.04729	13.22	7.24124
13.225	7.38735	13.225	7.90039
13.23	8.14115	13.23	7.14585
13.235	8.08322	13.235	7.20308
13.24	8.03976	13.24	7.24586
13.245	7.62022	13.245	7.66474
13.25	7.68742	13.25	7.5969
13.255	7.49929	13.255	7.7844
13.26	7.83812	13.26	7.44495
13.265	7.85083	13.265	7.43162
13.27	7.23488	13.27	8.04697
13.275	8.02166	13.275	7.25958
13.28	7.98847	13.28	7.29216
13.285	7.96357	13.285	7.31646
13.29	7.31941	13.29	7.96002
13.295	8.08503	13.295	7.19379
13.3	8.03597	13.3	7.24225
13.305	7.99917	13.305	7.27845
13.31	7.97157	13.31	7.30546
13.315	7.95086	13.315	7.32557
13.32	7.93532	13.32	7.34051
13.325	7.92366	13.325	7.35157
13.33	7.91491	13.33	7.35973
13.335	7.90835	13.335	7.3657
13.34	7.51647	13.34	7.75698
13.345	7.60442	13.345	7.66843
13.35	7.0449	13.35	8.22736
13.355	7.874	13.355	7.39766
13.36	7.87255	13.36	7.39851
13.365	7.24598	13.365	8.02449
13.37	7.39931	13.37	7.87055
13.375	8.13979	13.375	7.12948
13.38	7.44639	13.38	7.82228
13.385	7.5496	13.385	7.71847
13.39	8.25249	13.39	7.01499
13.395	7.53089	13.395	7.73599
13.4	7.61296	13.4	7.65332
13.405	8.29999	13.405	6.9657
13.41	7.5665	13.41	7.69859
13.415	7.63965	13.415	7.62485
13.42	7.93304	13.42	7.33086
13.425	7.91167	13.425	7.35163
13.43	7.27016	13.43	7.99255
13.435	8.03777	13.435	7.22434
13.44	7.36472	13.44	7.8968
13.445	7.4832	13.445	7.77772
13.45	8.19753	13.45	7.06279
13.455	7.48452	13.455	7.77521
13.46	7.57303	13.46	7.6861
13.465	8.26488	13.465	6.99365
13.47	8.1605	13.47	7.09744
13.475	7.45672	13.475	7.80062
13.48	7.55216	13.48	7.70459
13.485	8.24921	13.485	7.00694
13.49	7.52324	13.49	7.73231
13.495	8.2275	13.495	7.02745
13.5	7.74548	13.5	7.50888
13.505	7.14034	13.505	8.11342
13.51	7.30975	13.51	7.94341
13.515	8.06229	13.515	7.19028
13.52	7.37793	13.52	7.87404
13.525	9.15332	13.525	9.42885
13.53	8.83399	13.53	8.94393
13.535	8.5945	13.535	8.58012
13.54	8.4149	13.54	8.30714
13.545	8.2802	13.545	8.10228
13.55	8.1792	13.55	7.94852
13.555	8.10346	13.555	7.83307
13.56	8.04667	13.56	7.74636
13.565	8.00408	13.565	7.6812
13.57	7.97216	13.57	7.63221
13.575	7.94823	13.575	7.59534
13.58	7.93029	13.58	7.56757
13.585	7.91686	13.585	7.54662
13.59	7.90679	13.59	7.53078
13.595	7.51231	13.595	7.90572
13.6	7.59832	13.6	7.80494
13.605	7.66285	13.605	7.72923
13.61	7.71125	13.61	7.67233
13.615	8.37305	13.615	7.00405
13.62	7.62066	13.62	7.75146
13.625	8.30513	13.625	7.06315
13.63	7.56974	13.63	7.79554
13.635	7.64149	13.635	7.72144
13.64	7.69531	13.64	7.66574
13.645	7.73569	13.645	7.62384
13.65	7.76599	13.65	7.5923
13.655	8.41421	13.655	6.94303
13.66	7.65163	13.66	7.70471
13.665	7.70298	13.665	7.65258
13.67	8.36699	13.67	6.98787
13.675	8.24174	13.675	7.11249
13.68	7.52233	13.68	7.83131
13.685	8.23154	13.685	7.12155
13.69	7.75324	13.69	7.59932
13.695	7.7764	13.695	7.57566
13.7	7.79378	13.7	7.55779
13.705	7.80683	13.705	7.54427
13.71	7.19115	13.71	8.15948
13.715	7.97815	13.715	7.37201
13.72	7.94515	13.72	7.40456
13.725	7.29493	13.725	8.05432
13.73	8.05603	13.73	7.29277
13.735	8.00359	13.735	7.34476
13.74	7.96428	13.74	7.38362
13.745	7.93481	13.745	7.41264
13.75	7.28724	13.75	8.05977
13.755	7.42485	13.755	7.92171
13.76	8.15355	13.76	7.19257
13.765	7.45133	13.765	7.89434
13.77	7.54796	13.77	7.79727
13.775	8.24592	13.775	7.09887
13.78	7.75919	13.78	7.58516
13.785	7.53748	13.785	7.80642
13.79	7.85115	13.79	7.4923
13.795	7.84502	13.795	7.498
13.8	7.21495	13.8	8.12763
13.805	7.36568	13.805	7.97645
13.81	8.10422	13.81	7.23746
13.815	7.40939	13.815	7.93185
13.82	8.13703	13.82	7.20377
13.825	8.0595	13.825	7.28085
13.83	7.37589	13.83	7.96402
13.835	7.48646	13.835	7.853
13.84	8.19489	13.84	7.14414
13.845	7.47747	13.845	7.86111
13.85	7.56269	13.85	7.77545
13.855	7.62662	13.855	7.71108
13.86	7.67457	13.86	7.66268
13.865	7.71056	13.865	7.62625
13.87	7.73755	13.87	7.59881
13.875	7.75782	13.875	7.57811
13.88	7.77303	13.88	7.56246
13.885	7.3975	13.885	7.93754
13.89	7.49773	13.89	7.83686
13.895	7.57292	13.895	7.76123
13.9	7.62932	13.9	7.70439
13.905	7.67164	13.905	7.66163
13.91	7.70338	13.91	7.62944
13.915	7.72721	13.915	7.60517
13.92	7.74509	13.92	7.58685
13.925	7.75851	13.925	7.57298
13.93	7.76859	13.93	7.56246
13.935	7.77617	13.935	7.55444
13.94	7.78186	13.94	7.5483
13.945	7.78614	13.945	7.54358
13.95	7.78936	13.95	7.53991
13.955	7.7918	13.955	7.53704
13.96	7.79363	13.96	7.53476
13.965	7.79502	13.965	7.53293
13.97	7.79608	13.97	7.53143
13.975	7.79688	13.975	7.53018
13.98	7.79749	13.98	7.52912
13.985	7.79797	13.985	7.52821
13.99	7.79834	13.99	7.52739
13.995	7.79863	13.995	7.52666
14	7.79886	14	7.52599
14.005	7.79904	14.005	7.52536
14.01	7.79919	14.01	7.52477
14.015	7.79932	14.015	7.5242
14.02	7.79942	14.02	7.52365
14.025	7.79952	14.025	7.52311
14.03	7.7996	14.03	7.52259
14.035	7.79967	14.035	7.52207
14.04	7.79974	14.04	7.52156
14.045	7.79981	14.045	7.52105
14.05	7.79987	14.05	7.52054
14.055	7.79993	14.055	7.52004
14.06	7.79998	14.06	7.51954
14.065	7.80004	14.065	7.51905
14.07	7.80009	14.07	7.51855
14.075	7.80014	14.075	7.51805
14.08	7.8002	14.08	7.51756
14.085	7.80025	14.085	7.51706
14.09	7.8003	14.09	7.51657
14.095	7.80035	14.095	7.51607
14.1	7.8004	14.1	7.51558
14.105	7.80046	14.105	7.51508
14.11	8.18745	14.11	7.12764
14.115	7.7089	14.115	7.60575
14.12	8.11881	14.12	7.1954
14.125	8.04439	14.125	7.26937
14.13	7.98859	14.13	7.32473
14.135	7.94675	14.135	7.36613
14.14	7.91539	14.14	7.39705
14.145	7.89188	14.145	7.42012
14.15	7.87425	14.15	7.4373
14.155	7.86105	14.155	7.45006
14.16	7.85116	14.16	7.4595
14.165	7.84376	14.165	7.46646
14.17	7.83822	14.17	7.47156
14.175	7.83407	14.175	7.47526
14.18	7.83098	14.18	7.47791
14.185	7.82867	14.185	7.47978
14.19	7.82695	14.19	7.48105
14.195	7.82568	14.195	7.48189
14.2	7.82473	14.2	7.48239
14.205	8.21098	14.205	7.09569
14.21	8.11882	14.21	7.18742
14.215	8.04971	14.215	7.25608
14.22	7.99789	14.22	7.30746
14.225	7.95903	14.225	7.34587
14.23	7.92991	14.23	7.37455
14.235	7.90807	14.235	7.39594
14.24	7.89171	14.24	7.41186
14.245	7.87945	14.245	7.42368
14.25	7.87027	14.25	7.43241
14.255	7.8634	14.255	7.43884
14.26	7.85826	14.26	7.44354
14.265	7.85441	14.265	7.44694
14.27	7.85154	14.27	7.44937
14.275	7.8494	14.275	7.45107
14.28	7.84781	14.28	7.45222
14.285	7.84663	14.285	7.45296
14.29	7.84576	14.29	7.45339
14.295	7.84511	14.295	7.45359
14.3	7.84464	14.3	7.45361
14.305	7.8443	14.305	7.45351
14.31	7.84406	14.31	7.45331
14.315	8.23084	14.315	7.06609
14.32	8.13907	14.32	7.15741
14.325	8.07026	14.325	7.22578
14.33	8.01866	14.33	7.27694
14.335	7.97997	14.335	7.31518
14.34	7.95097	14.34	7.34374
14.345	7.92923	14.345	7.36503
14.35	7.91294	14.35	7.38088
14.355	7.90074	14.355	7.39264
14.36	7.50465	14.36	7.78829
14.365	7.97641	14.365	7.31609
14.37	7.56143	14.37	7.73063
14.375	7.63207	14.375	7.65954
14.38	7.68506	14.38	7.6061
14.385	7.72482	14.385	7.5659
14.39	7.75465	14.39	7.53562
14.395	7.77704	14.395	7.5128
14.4	8.18079	14.4	7.1086
14.405	8.10175	14.405	7.1872
14.41	8.04248	14.41	7.24603
14.415	7.99804	14.415	7.29002
14.42	7.96473	14.42	7.32289
14.425	7.93975	14.425	7.34742
14.43	7.92103	14.43	7.3657
14.435	7.90701	14.435	7.37928
14.44	7.8965	14.44	7.38935
14.445	7.50169	14.445	7.78372
14.45	7.58746	14.45	7.69751
14.455	7.65179	14.455	7.63272
14.46	7.70006	14.46	7.58402
14.465	7.73627	14.465	7.54736
14.47	7.76344	14.47	7.51974
14.475	7.78384	14.475	7.49891
14.48	7.79914	14.48	7.48316
14.485	7.81064	14.485	7.47122
14.49	7.81927	14.49	7.46215
14.495	7.82575	14.495	7.45522
14.5	7.83063	14.5	7.4499
14.505	7.8343	14.505	7.44578
14.51	7.83707	14.51	7.44257
14.515	7.83916	14.515	7.44004
14.52	7.84073	14.52	7.43802
14.525	7.84193	14.525	7.43638
14.53	7.84284	14.53	7.43503
14.535	7.21805	14.535	8.05937
14.54	7.99823	14.54	7.27875
14.545	7.9601	14.545	7.31644
14.55	7.93152	14.55	7.34458
14.555	7.52315	14.555	7.75251
14.56	7.59875	14.56	7.67647
14.565	7.02998	14.565	8.24479
14.57	7.85217	14.57	7.42216
14.575	7.84555	14.575	7.42833
14.58	7.21512	14.58	8.05832
14.585	7.99106	14.585	7.28194
14.59	7.94975	14.59	7.3228
14.595	7.29331	14.595	7.9788
14.6	8.04974	14.6	7.22193
14.605	7.9938	14.605	7.27742
14.61	7.32638	14.61	7.9444
14.615	8.07458	14.615	7.19576
14.62	8.01247	14.62	7.25743
14.625	7.34042	14.625	7.92903
14.63	7.45966	14.63	7.80934
14.635	8.17459	14.635	7.09397
14.64	7.46205	14.64	7.80608
14.645	7.55092	14.645	7.71676
14.65	8.24307	14.65	7.02417
14.655	8.13892	14.655	7.12787
14.66	7.43534	14.66	7.83101
14.665	7.53094	14.665	7.73496
14.67	8.22814	14.67	7.03733
14.675	7.50229	14.675	7.76273
14.68	7.58119	14.68	7.68339
14.685	8.26586	14.685	6.99828
14.69	7.53061	14.69	7.73308
14.695	7.60247	14.695	7.66078
14.7	7.65637	14.7	7.60643
14.705	6.03141	14.705	5.90015
14.71	6.46358	14.71	6.2712
14.715	6.7877	14.715	6.54934
14.72	7.03078	14.72	6.7578
14.725	7.21308	14.725	6.91401
14.73	7.3498	14.73	7.03102
14.735	7.45233	14.735	7.11864
14.74	7.52923	14.74	7.18421
14.745	7.58689	14.745	7.23325
14.75	7.63013	14.75	7.26988
14.755	7.66255	14.755	7.29722
14.76	7.68686	14.76	7.31758
14.765	7.70508	14.765	7.33271
14.77	7.71874	14.77	7.34391
14.775	7.72898	14.775	7.35217
14.78	7.73665	14.78	7.35823
14.785	7.7424	14.785	7.36263
14.79	7.7467	14.79	7.36578
14.795	7.74992	14.795	7.36801
14.8	7.75232	14.8	7.36954
14.805	7.75412	14.805	7.37054
14.81	7.75546	14.81	7.37115
14.815	7.75646	14.815	7.37147
14.82	9.4226	14.82	9.03696
14.825	9.02132	14.825	8.63507
14.83	8.72037	14.83	8.33352
14.835	8.49467	14.835	8.10724
14.84	8.32541	14.84	7.93741
14.845	8.58542	14.845	7.42297
14.85	8.01163	14.85	7.80582
14.855	7.96317	14.855	7.71098
14.86	8.31378	14.86	7.25277
14.865	8.19488	14.865	7.29086
14.87	8.10572	14.87	7.31931
14.875	8.03886	14.875	7.34052
14.88	7.98872	14.88	7.35631
14.885	7.95114	14.885	7.36802
14.89	7.92296	14.89	7.37669
14.895	7.90184	14.895	7.38307
14.9	7.88601	14.9	7.38773
14.905	7.87414	14.905	7.3911
14.91	7.86526	14.91	7.39351
14.915	7.85861	14.915	7.39519
14.92	7.85363	14.92	7.39633
14.925	7.84991	14.925	7.39706
14.93	7.84713	14.93	7.39749
14.935	7.84506	14.935	7.39768
14.94	7.84352	14.94	7.39771
14.945	7.84237	14.945	7.39761
14.95	7.84152	14.95	7.39741
14.955	7.8409	14.955	7.39713
14.96	7.84045	14.96	7.39681
14.965	7.84011	14.965	7.39644
14.97	8.22683	14.97	7.00909
14.975	8.135	14.975	7.10033
14.98	8.06615	14.98	7.16863
14.985	8.01452	14.985	7.21974
14.99	7.97581	14.99	7.25794
14.995	7.94679	14.995	7.28647
15	21.0743	15	20.4571
15.005	21.0755	15.005	20.4903
15.01	21.0807	15.01	20.5196
15.015	21.089	15.015	20.5457
15.02	21.0996	15.02	20.5696
15.025	21.112	15.025	20.5917
15.03	21.1256	15.03	20.6125
15.035	21.1402	15.035	20.6324
15.04	21.1555	15.04	20.6515
15.045	21.1714	15.045	20.6701
15.05	21.1876	15.05	20.6883
15.055	21.8297	15.055	20.0807
15.06	21.6923	15.06	20.2525
15.065	21.5937	15.065	20.3856
15.07	21.5241	15.07	20.4897
15.075	19.8109	15.075	18.9066
15.08	20.1812	15.08	19.3744
15.085	20.4633	15.085	19.7294
15.09	20.6793	15.09	19.9999
15.095	20.8456	15.095	20.207
15.1	20.9747	15.1	20.3666
15.105	21.0758	15.105	20.4905
15.11	21.1561	15.11	20.5876
15.115	19.5552	15.115	18.9993
15.12	20.6353	15.12	18.8377
15.125	20.8264	15.125	19.3439
15.13	20.9741	15.13	19.7278
15.135	19.4238	15.135	18.3545
15.14	19.9162	15.14	18.9796
15.145	20.9154	15.145	18.8272
15.15	20.4203	15.15	19.9658
15.155	19.6367	15.155	17.9097
15.16	20.0809	15.16	18.646
15.165	18.753	15.165	17.537
15.17	19.4122	15.17	18.3603
15.175	18.6325	15.175	16.9296
15.18	19.3209	15.18	17.8934
15.185	18.1762	15.185	16.955
15.19	17.3073	15.19	16.2408
15.195	18.9363	15.195	16.7346
15.2	17.8736	15.2	16.067
15.205	17.0662	15.205	15.5558
15.21	16.4504	15.21	15.1619
15.215	15.9782	15.215	14.8561
15.22	17.9046	15.22	15.6561
15.225	17.4518	15.225	14.8311
15.23	16.7199	15.23	14.5836
15.235	16.1607	15.235	14.3875
15.24	17.3962	15.24	15.8953
15.245	13.7177	15.245	11.6469
15.25	16.1592	15.25	13.1736
15.255	15.0801	15.255	13.9058
15.26	10.8999	15.26	7.81248
15.265	11.7017	15.265	9.18959
15.27	9.97408	15.27	5.86847
15.275	10.5774	15.275	8.06071
15.28	8.45731	15.28	5.59448
15.285	10.4019	15.285	6.79212
15.29	10.3623	15.29	9.16675
15.295	6.81586	15.295	4.45047
15.3	7.82161	15.3	3.8004
15.305	9.21082	15.305	5.95787
15.31	6.6725	15.31	4.47267
15.315	8.53955	15.315	6.16952
15.32	9.44892	15.32	7.91099
15.325	7.03059	15.325	5.63376
15.33	8.50758	15.33	7.21643
15.335	10.2297	15.335	7.76674
15.34	9.22161	15.34	7.12612
15.345	9.47981	15.345	8.91076
15.35	9.24568	15.35	7.32381
15.355	8.80807	15.355	6.34409
15.36	9.1122	15.36	8.25618
15.365	9.95233	15.365	9.05559
15.37	7.24039	15.37	6.31295
15.375	9.12239	15.375	6.92082
15.38	9.2738	15.38	8.61399
15.385	6.66849	15.385	5.91831
15.39	8.00489	15.39	7.18678
15.395	8.99576	15.395	8.12656
15.4	8.06207	15.4	7.15441
15.405	7.33582	15.405	6.39916
15.41	8.4305	15.41	7.47194
15.415	7.18763	15.415	6.98639
15.42	6.9982	15.42	5.82719
15.425	8.11354	15.425	6.97878
15.43	3.55527	15.43	3.22144
15.435	5.4594	15.435	4.96239
15.44	6.87577	15.44	6.25623
15.445	6.26089	15.445	5.5493
15.45	5.77344	15.45	4.99267
15.455	7.04692	15.455	6.21411
15.46	5.6993	15.46	6.07828
15.465	5.28547	15.465	5.3266
15.47	6.61406	15.47	6.40166
15.475	5.54622	15.475	5.91741
15.48	7.15306	15.48	6.42418
15.485	7.96432	15.485	7.17398
15.49	4.84301	15.49	4.78031
15.495	6.56054	15.495	5.50581
15.5	7.45473	15.5	6.41955
15.505	6.44785	15.505	5.4272
15.51	5.04056	15.51	5.28161
15.515	6.24706	15.515	6.1877
15.52	3.42198	15.52	3.91107
15.525	4.97455	15.525	5.1111
15.53	6.51363	15.53	5.61174
15.535	1.89063	15.535	1.74738
15.54	3.74554	15.54	3.4074
15.545	5.12432	15.545	4.63987
15.55	2.1897	15.55	2.84633
15.555	3.90131	15.555	4.16707
15.56	1.84172	15.56	1.81419
15.565	3.97321	15.565	2.95166
15.57	4.55189	15.57	4.79939
15.575	3.93118	15.575	3.88378
15.58	5.10391	15.58	4.83519
15.585	5.97079	15.585	5.53595
15.59	5.32983	15.59	3.99636
15.595	6.10542	15.595	4.86157
15.6	6.0489	15.6	6.12308
15.605	3.28624	15.605	3.10226
15.61	4.50321	15.61	4.12548
15.615	2.45927	15.615	1.16219
15.62	3.20786	15.62	3.23582
15.625	1.43582	15.625	0.436992
15.63	3.01375	15.63	2.00842
15.635	4.18421	15.635	3.17387
15.64	3.14512	15.64	2.60795
15.645	4.63201	15.645	3.19288
15.65	5.35224	15.65	4.00024
15.655	3.97541	15.655	3.16568
15.66	6.48736	15.66	5.60139
15.665	2.48501	15.665	-0.00605367
15.67	4.69892	15.67	3.78232
15.675	2.37468	15.675	0.618363
15.68	5.20356	15.68	3.58106
15.685	4.14409	15.685	2.32499
15.69	4.84663	15.69	3.16087
15.695	7.02561	15.695	5.43973
15.7	7.38259	15.7	5.09759
15.705	7.64207	15.705	4.82244
15.71	8.48138	15.71	7.27535
15.715	8.45683	15.715	6.44043
15.72	10.0955	15.72	7.46106
15.725	9.27842	15.725	6.944
15.73	9.03914	15.73	6.15574
15.735	8.46441	15.735	5.93288
15.74	10.0723	15.74	7.03062
15.745	8.60649	15.745	7.19682
15.75	10.1693	15.75	7.96308
15.755	9.68219	15.755	6.86822
15.76	9.30845	15.76	6.0284
15.765	10.2982	15.765	7.43218
15.77	9.76306	15.77	6.43357
15.775	10.6317	15.775	7.71824
15.78	11.6712	15.78	8.29566
15.785	10.4045	15.785	7.44607
15.79	11.1064	15.79	8.46062
15.795	12.0207	15.795	8.83544
15.8	12.3255	15.8	9.49927
15.805	10.8897	15.805	8.33259
15.81	11.8517	15.81	8.72237
15.815	12.1923	15.815	9.3974
15.82	12.4486	15.82	9.9045
15.825	10.351	15.825	9.24575
15.83	11.6784	15.83	9.15463
15.835	12.0515	15.835	9.71039
15.84	12.7193	15.84	9.74107
15.845	12.8392	15.845	10.1468
15.85	12.5431	15.85	10.8388
15.855	11.0385	15.855	9.31135
15.86	11.5618	15.86	9.81747
15.865	11.9552	15.865	10.1978
15.87	12.2512	15.87	10.4839
15.875	12.0871	15.875	11.0862
15.88	12.3469	15.88	11.1569
15.885	12.5426	15.885	11.2107
15.89	11.0249	15.89	9.5864
15.895	11.5385	15.895	10.0199
15.9	11.9245	15.9	10.3458
15.905	12.4535	15.905	10.3524
15.91	12.6097	15.91	10.5996
15.915	10.6754	15.915	9.50727
15.92	11.2584	15.92	9.95783
15.925	11.3095	15.925	10.6834
15.93	11.7306	15.93	10.8466
15.935	11.6603	15.935	11.3566
15.94	9.93806	15.94	10.0795
15.945	10.68	15.945	10.3915
15.95	11.4758	15.95	10.3877
15.955	11.8321	15.955	10.627
15.96	9.66095	15.96	9.9157
15.965	10.448	15.965	10.2701
15.97	10.6522	15.97	10.9236
15.975	10.8012	15.975	11.4194
15.98	9.24322	15.98	10.1318
15.985	10.7338	15.985	9.81025
15.99	10.8424	15.99	10.58
15.995	10.9195	15.995	11.1631
16	11.3601	16	11.2193
16.005	9.25207	16.005	10.3706
16.01	10.325	16.01	10.3834
16.015	8.44982	16.015	9.74358
16.02	9.45884	16.02	10.1515
16.025	9.82944	16.025	10.8451
16.03	8.67624	16.03	9.46706
16.035	9.21652	16.035	10.3316
16.04	9.61741	16.04	10.9857
16.045	7.86143	16.045	10.2035
16.05	8.95981	16.05	10.5047
16.055	9.39741	16.055	11.1181
16.06	8.44282	16.06	9.53151
16.065	9.61704	16.065	9.75454
16.07	9.87009	16.07	10.5508
16.075	8.00318	16.075	9.87516
16.08	9.01834	16.08	10.2562
16.085	9.39347	16.085	10.9295
16.09	8.392	16.09	9.38778
16.095	8.90554	16.095	10.2699
16.1	9.91179	16.1	10.3116
16.105	8.37342	16.105	9.30647
16.11	9.25308	16.11	9.82215
16.115	9.9135	16.115	10.2095
16.12	7.9702	16.12	9.60896
16.125	8.54106	16.125	10.4332
16.13	9.35173	16.13	10.6701
16.135	8.53352	16.135	8.9443
16.14	9.32999	16.14	9.54277
16.145	9.92798	16.145	9.99212
16.15	7.93783	16.15	9.43813
16.155	8.86045	16.155	9.91027
16.16	7.5007	16.16	8.98641
16.165	8.12729	16.165	9.94995
16.17	9.60519	16.17	9.66572
16.175	10.0909	16.175	10.0763
16.18	8.40351	16.18	9.10621
16.185	9.17127	16.185	9.64813
16.19	8.08229	16.19	8.38961
16.195	8.53005	16.195	9.48398
16.2	9.24831	16.2	9.92331
16.205	7.73522	16.205	8.97478
16.21	8.6337	16.21	9.53282
16.215	8.26819	16.215	7.66087
16.22	9.02221	16.22	8.53145
16.225	9.2013	16.225	9.57172
16.23	8.05261	16.23	8.30504
16.235	8.8425	16.235	9.00628
16.24	7.77002	16.24	7.86718
16.245	8.61704	16.245	8.6641
16.25	9.25279	16.25	9.26212
16.255	8.0647	16.255	8.04559
16.26	8.82499	16.26	8.78441
16.265	9.39568	16.265	9.33885
16.27	9.82416	16.27	9.755
16.275	8.48059	16.275	8.40204
16.28	9.12426	16.28	9.03852
16.285	9.60746	16.285	9.51619
16.29	9.97031	16.29	9.87474
16.295	10.2429	16.295	10.144
16.3	11.0733	16.3	9.7207
16.305	9.40782	16.305	8.36143
16.31	9.81006	16.31	8.99316
16.315	10.1122	16.315	9.46725
16.32	10.3392	16.32	9.82309
16.325	8.84448	16.325	8.42487
16.33	9.37476	16.33	9.02736
16.335	9.77288	16.335	9.47949
16.34	10.4588	16.34	9.43191
16.345	10.5918	16.345	9.77835
16.35	10.692	16.35	10.0385
16.355	9.10214	16.355	8.5684
16.36	9.56103	16.36	9.11699
16.365	9.90559	16.365	9.52869
16.37	10.5513	16.37	9.45076
16.375	10.6542	16.375	9.77443
16.38	10.7317	16.38	10.0174
16.385	10.7903	16.385	10.1999
16.39	9.16916	16.39	8.67163
16.395	9.6046	16.395	9.17655
16.4	9.93155	16.4	9.55546
16.405	10.5641	16.405	9.45292
16.41	10.657	16.41	9.75811
16.415	10.7271	16.415	9.98723
16.42	9.11457	16.42	8.4939
16.425	9.55646	16.425	9.02501
16.43	10.2752	16.43	9.0366
16.435	10.4327	16.435	9.42736
16.44	10.5512	16.44	9.72065
16.445	8.97502	16.445	8.27542
16.45	10.0696	16.45	8.2171
16.455	10.6546	16.455	8.40988
16.46	10.7117	16.46	8.93651
16.465	10.755	16.465	9.33168
16.47	10.7877	16.47	9.62824
16.475	10.8126	16.475	9.85085
16.48	9.16622	16.48	8.3526
16.485	9.58264	16.485	8.87997
16.49	9.89527	16.49	9.27567
16.495	10.517	16.495	9.18567
16.5	10.6018	16.5	9.5002
16.505	10.6656	16.505	9.73627
16.51	10.7139	16.51	9.91349
16.515	10.7504	16.515	10.0466
16.52	9.11265	16.52	8.48116
16.525	9.53555	16.525	8.95814
16.53	9.85303	16.53	9.31603
16.535	10.0914	16.535	9.58459
16.54	10.2705	16.54	9.78616
16.545	10.4052	16.545	9.93749
16.55	10.5064	16.55	10.0511
16.555	10.5827	16.555	10.1365
16.56	10.6401	16.56	10.2007
16.565	10.2966	16.565	10.636
16.57	10.8081	16.57	10.1937
16.575	10.4231	16.575	10.631
16.58	8.85122	16.58	8.91186
16.585	9.32345	16.585	9.27352
16.59	9.6779	16.59	9.5449
16.595	9.94401	16.595	9.74857
16.6	10.1439	16.6	9.90144
16.605	10.2941	16.605	10.0162
16.61	10.407	16.61	10.1025
16.615	10.4919	16.615	10.1673
16.62	10.169	16.62	10.6029
16.625	10.6959	16.625	10.161
16.63	10.3225	16.63	10.5985
16.635	8.7592	16.635	8.8795
16.64	9.23789	16.64	9.24125
16.645	9.59717	16.645	9.51267
16.65	9.86688	16.65	9.71635
16.655	10.0694	16.655	9.86922
16.66	10.2216	16.66	9.98399
16.665	10.336	16.665	10.0702
16.67	10.422	16.67	10.1349
16.675	10.0999	16.675	10.5705
16.68	10.2404	16.68	10.5155
16.685	8.68064	16.685	8.80894
16.69	9.16196	16.69	9.18001
16.695	9.13624	16.695	9.84534
16.7	9.49906	16.7	9.96257
16.705	9.77141	16.705	10.0506
16.71	9.97591	16.71	10.1167
16.715	9.50405	16.715	10.7918
16.72	9.77366	16.72	10.675
16.725	9.97611	16.725	10.5875
16.73	10.1282	16.73	10.522
16.735	10.2425	16.735	10.4729
16.74	10.3284	16.74	10.4362
16.745	10.3932	16.745	10.4087
16.75	8.77653	16.75	8.72286
16.755	9.21518	16.755	9.10942
16.76	9.54438	16.76	9.39941
16.765	9.7915	16.765	9.61698
16.77	9.97706	16.77	9.78023
16.775	9.72951	16.775	10.2897
16.78	9.92593	16.78	10.29
16.785	10.0735	16.785	10.2903
16.79	10.1843	16.79	10.2906
16.795	10.2677	16.795	10.2909
16.8	10.3305	16.8	10.2912
16.805	10.7647	16.805	9.90454
16.81	10.7087	16.81	9.99649
16.815	10.6669	16.815	10.0655
16.82	10.6358	16.82	10.1174
16.825	10.6127	16.825	10.1564
16.83	10.5956	16.83	10.1856
16.835	8.91762	16.835	8.5423
16.84	9.31021	16.84	8.96073
16.845	8.97937	16.845	9.9001
16.85	9.35471	16.85	9.9814
16.855	9.63642	16.855	10.0424
16.86	9.8479	16.86	10.0883
16.865	10.0067	16.865	10.1227
16.87	10.126	16.87	10.1486
16.875	10.2157	16.875	10.168
16.88	10.6701	16.88	9.79575
16.885	10.6292	16.885	9.89845
16.89	10.5988	16.89	9.97553
16.895	8.91076	16.895	8.368
16.9	9.29581	16.9	8.81329
16.905	9.58478	16.905	9.14729
16.91	9.80169	16.91	9.39782
16.915	10.3515	16.915	9.19881
16.92	10.3822	16.92	9.43146
16.925	9.77987	16.925	10.2315
16.93	9.9516	16.93	10.2082
16.935	10.0806	16.935	10.1908
16.94	10.1775	16.94	10.1778
16.945	10.2503	16.945	10.1681
16.95	10.6921	16.95	9.77393
16.955	10.6418	16.955	9.86019
16.96	10.6042	16.96	9.92492
16.965	10.5762	16.965	9.9735
16.97	10.9423	16.97	9.62303
16.975	10.8352	16.975	9.74208
16.98	8.46417	16.98	8.79149
16.985	8.96023	16.985	9.10619
16.99	9.33244	16.99	9.34223
16.995	9.61175	16.995	9.51928
17	9.82139	17	9.65209
17.005	9.97879	17.005	9.75172
17.01	10.097	17.01	9.82646
17.015	10.1858	17.015	9.88253
17.02	10.2526	17.02	9.9246
17.025	10.6898	17.025	9.56923
17.03	10.6359	17.03	9.68459
17.035	10.5957	17.035	9.77113
17.04	10.5657	17.04	9.83605
17.045	10.5434	17.045	9.88476
17.05	10.2883	17.05	10.1598
17.055	10.3385	17.055	10.1248
17.06	10.3763	17.06	10.0985
17.065	10.4048	17.065	10.0788
17.07	10.4264	17.07	10.064
17.075	10.4427	17.075	10.053
17.08	10.4551	17.08	10.0447
17.085	10.4646	17.085	10.0386
17.09	10.4718	17.09	10.034
17.095	10.4774	17.095	10.0305
17.1	9.20334	17.1	7.97562
17.105	9.51694	17.105	8.46721
17.11	9.75228	17.11	8.8359
17.115	9.30344	17.115	9.7379
17.12	9.59022	17.12	9.79112
17.125	9.80544	17.125	9.83105
17.13	10.3539	17.13	9.47405
17.135	10.3836	17.135	9.58816
17.14	10.406	17.14	9.67375
17.145	10.4229	17.145	9.73795
17.15	10.4357	17.15	9.7861
17.155	10.4455	17.155	9.82221
17.16	9.82746	17.16	10.4748
17.165	9.98736	17.165	10.3409
17.17	10.1074	17.17	10.2406
17.175	10.1976	17.175	10.1653
17.18	10.2654	17.18	10.1088
17.185	10.7033	17.185	9.67953
17.19	10.65	17.19	9.73943
17.195	10.6102	17.195	9.78436
17.2	10.5804	17.2	9.81806
17.205	9.93277	17.205	10.4688
17.21	10.0704	17.21	10.3336
17.215	10.1738	17.215	10.2322
17.22	10.2515	17.22	10.1562
17.225	10.3099	17.225	10.0992
17.23	10.3539	17.23	10.0564
17.235	10.3869	17.235	10.0243
17.24	8.7465	17.24	8.33488
17.245	9.16717	17.245	8.71867
17.25	9.4828	17.25	9.0065
17.255	10.1066	17.255	8.83541
17.26	9.80572	17.26	9.47589
17.265	10.349	17.265	9.18743
17.27	9.74924	17.27	9.97841
17.275	9.92281	17.275	9.94835
17.28	10.0531	17.28	9.9258
17.285	10.1509	17.285	9.90887
17.29	10.2244	17.29	9.89616
17.295	10.2797	17.295	9.88662
17.3	10.3212	17.3	9.87944
17.305	10.3525	17.305	9.87405
17.31	10.3761	17.31	9.86999
17.315	10.3938	17.315	9.86693
17.32	10.4073	17.32	9.86462
17.325	10.4175	17.325	9.86288
17.33	9.79982	17.33	10.487
17.335	9.95993	17.335	10.3319
17.34	10.0801	17.34	10.2155
17.345	10.1704	17.345	10.1282
17.35	10.6251	17.35	9.67573
17.355	10.5845	17.355	9.71826
17.36	10.5541	17.36	9.75014
17.365	10.5314	17.365	9.77403
17.37	10.5145	17.37	9.79194
17.375	10.5019	17.375	9.80536
17.38	10.4926	17.38	9.81541
17.385	10.4858	17.385	9.82294
17.39	10.4807	17.39	9.82857
17.395	10.4771	17.395	9.83278
17.4	9.84898	17.4	10.4614
17.405	10.0013	17.405	10.3096
17.41	10.1156	17.41	10.1957
17.415	10.2015	17.415	10.1103
17.42	10.653	17.42	9.65927
17.425	10.6098	17.425	9.70286
17.43	10.5776	17.43	9.73554
17.435	10.5535	17.435	9.76003
17.44	9.91007	17.44	10.4039
17.445	10.0509	17.445	10.2635
17.45	10.1566	17.45	10.1582
17.455	10.236	17.455	10.0792
17.46	10.2957	17.46	10.0199
17.465	10.3406	17.465	9.97545
17.47	10.3743	17.47	9.94209
17.475	10.3998	17.475	9.91707
17.48	10.419	17.48	9.89829
17.485	10.4335	17.485	9.88419
17.49	10.4445	17.49	9.87361
17.495	10.4528	17.495	9.86566
17.5	10.4592	17.5	9.85969
17.505	10.4641	17.505	9.8552
17.51	9.84241	17.51	10.4773
17.515	9.99953	17.515	10.3206
17.52	10.1175	17.52	10.2031
17.525	10.206	17.525	10.1149
17.53	10.2726	17.53	10.0488
17.535	10.3226	17.535	9.99914
17.54	8.69484	17.54	8.29652
17.545	9.125	17.545	8.67043
17.55	9.44772	17.55	8.95082
17.555	9.68984	17.555	9.16109
17.56	9.87153	17.56	9.31876
17.565	10.0079	17.565	9.43699
17.57	9.48478	17.57	10.1511
17.575	9.7158	17.575	10.0634
17.58	9.88917	17.58	9.99759
17.585	10.0193	17.585	9.9482
17.59	10.117	17.59	9.91113
17.595	10.1903	17.595	9.8833
17.6	10.2454	17.6	9.8624
17.605	10.2868	17.605	9.84669
17.61	10.318	17.61	9.83489
17.615	10.3415	17.615	9.826
17.62	10.3591	17.62	9.81931
17.625	10.3725	17.625	9.81427
17.63	9.75713	17.63	10.4359
17.635	9.91897	17.635	10.2789
17.64	10.0404	17.64	10.1611
17.645	10.1316	17.645	10.0727
17.65	10.2001	17.65	10.0064
17.655	10.2516	17.655	9.95659
17.66	10.2903	17.66	9.91924
17.665	10.3194	17.665	9.8912
17.67	10.3413	17.67	9.87014
17.675	9.73233	17.675	10.4798
17.68	9.89898	17.68	10.3137
17.685	10.0241	17.685	10.1892
17.69	10.118	17.69	10.0957
17.695	10.1885	17.695	10.0256
17.7	10.2415	17.7	9.973
17.705	10.2813	17.705	9.93351
17.71	10.3112	17.71	9.90387
17.715	10.3338	17.715	9.88161
17.72	10.3508	17.72	9.86489
17.725	10.3637	17.725	9.85232
17.73	10.3734	17.73	9.84287
17.735	10.3808	17.735	9.83576
17.74	10.3864	17.74	9.8304
17.745	10.3907	17.745	9.82635
17.75	10.394	17.75	9.82328
17.755	10.3966	17.755	9.82096
17.76	9.77316	17.76	10.4447
17.765	10.3159	17.765	9.90221
17.77	10.3411	17.77	9.8772
17.775	10.3602	17.775	9.85842
17.78	10.3745	17.78	9.84431
17.785	10.3854	17.785	9.8337
17.79	10.3937	17.79	9.82572
17.795	10.3999	17.795	9.81971
17.8	10.4047	17.8	9.81517
17.805	10.4084	17.805	9.81175
17.81	10.4112	17.81	9.80915
17.815	10.4135	17.815	9.80718
17.82	10.4152	17.82	9.80568
17.825	10.4166	17.825	9.80452
17.83	10.4178	17.83	9.80363
17.835	10.4187	17.835	9.80294
17.84	10.4195	17.84	9.80239
17.845	10.4202	17.845	9.80196
17.85	9.79536	17.85	10.4271
17.855	9.95006	17.855	10.2726
17.86	10.0662	17.86	10.1568
17.865	10.1534	17.865	10.0698
17.87	10.2188	17.87	10.0046
17.875	10.268	17.875	9.9557
17.88	10.305	17.88	9.91897
17.885	10.3328	17.885	9.8914
17.89	10.3538	17.89	9.8707
17.895	10.3696	17.895	9.85515
17.9	10.3815	17.9	9.84346
17.905	10.3906	17.905	9.83467
17.91	10.3975	17.91	9.82805
17.915	10.4027	17.915	9.82306
17.92	9.78124	17.92	10.4448
17.925	9.93851	17.925	10.2878
17.93	10.0565	17.93	10.17
17.935	10.1452	17.935	10.0816
17.94	10.2117	17.94	10.0153
17.945	10.2617	17.945	9.96559
17.95	10.2993	17.95	9.92826
17.955	10.3276	17.955	9.90024
17.96	10.3489	17.96	9.8792
17.965	10.3649	17.965	9.86339
17.97	10.3771	17.97	9.85152
17.975	10.3862	17.975	9.84259
17.98	10.3932	17.98	9.83586
17.985	10.3985	17.985	9.8308
17.99	10.4026	17.99	9.82698
17.995	10.4058	17.995	9.82409
18	10.4082	18	9.8219
18.005	10.4101	18.005	9.82023
18.01	10.4117	18.01	9.81895
18.015	10.4129	18.015	9.81797
18.02	10.8009	18.02	9.43027
18.025	10.7101	18.025	9.52133
18.03	10.2551	18.03	9.97655
18.035	10.6828	18.035	9.54913
18.04	9.99627	18.04	10.2359
18.045	10.1048	18.045	10.1277
18.05	10.1862	18.05	10.0465
18.055	9.86043	18.055	10.3725
18.06	9.99805	18.06	10.2351
18.065	10.4883	18.065	9.74514
18.07	10.0873	18.07	10.1464
18.075	10.1684	18.075	10.0655
18.08	10.2294	18.08	10.0048
18.085	10.2752	18.085	9.95925
18.09	10.6966	18.09	9.53811
18.095	10.2439	18.095	9.99105
18.1	10.2864	18.1	9.94886
18.105	10.3183	18.105	9.9172
18.11	10.3423	18.11	9.89343
18.115	10.3604	18.115	9.87558
18.12	10.3741	18.12	9.86217
18.125	10.3844	18.125	9.85209
18.13	10.3923	18.13	9.84451
18.135	10.3982	18.135	9.8388
18.14	10.4028	18.14	9.8345
18.145	10.4063	18.145	9.83124
18.15	9.78352	18.15	10.4543
18.155	9.93981	18.155	10.2982
18.16	10.0571	18.16	10.1812
18.165	9.75822	18.165	10.4803
18.17	9.91601	18.17	10.3228
18.175	10.0344	18.175	10.2046
18.18	10.1233	18.18	10.116
18.185	10.1901	18.185	10.0495
18.19	10.2403	18.19	9.99957
18.195	10.278	18.195	9.96212
18.2	10.3063	18.2	9.93401
18.205	10.3277	18.205	9.91291
18.21	10.3438	18.21	9.89706
18.215	10.356	18.215	9.88515
18.22	10.3652	18.22	9.8762
18.225	10.3722	18.225	9.86946
18.23	10.3775	18.23	9.86439
18.235	10.3816	18.235	9.86056
18.24	10.3847	18.24	9.85767
18.245	10.3872	18.245	9.85548
18.25	10.3891	18.25	9.85381
18.255	10.3906	18.255	9.85254
18.26	10.3918	18.26	9.85157
18.265	10.3928	18.265	9.85081
18.27	10.3937	18.27	9.85023
18.275	10.0075	18.275	10.2367
18.28	10.0997	18.28	10.1447
18.285	10.169	18.285	10.0757
18.29	10.2211	18.29	10.0239
18.295	10.2602	18.295	9.98498
18.3	9.66417	18.3	10.5813
18.305	9.84049	18.305	10.4052
18.31	9.97282	18.31	10.2731
18.315	10.0721	18.315	10.1741
18.32	10.1467	18.32	10.0997
18.325	10.2027	18.325	10.044
18.33	10.2448	18.33	10.0021
18.335	10.2765	18.335	9.97074
18.34	10.3003	18.34	9.94716
18.345	10.3183	18.345	9.92946
18.35	10.3318	18.35	9.91616
18.355	9.95515	18.355	10.2931
18.36	10.0546	18.36	10.1939
18.365	10.1292	18.365	10.1195
18.37	10.1853	18.37	10.0637
18.375	10.2274	18.375	10.0218
18.38	10.2591	18.38	9.99041
18.385	10.283	18.385	9.96681
18.39	10.301	18.39	9.94909
18.395	10.3145	18.395	9.93578
18.4	10.3248	18.4	9.92578
18.405	10.3326	18.405	9.91826
18.41	10.3385	18.41	9.91259
18.415	10.343	18.415	9.90832
18.42	10.3465	18.42	9.9051
18.425	10.3492	18.425	9.90266
18.43	10.3513	18.43	9.90082
18.435	10.3529	18.435	9.89941
18.44	10.3543	18.44	9.89833
18.445	10.3554	18.445	9.8975
18.45	10.3563	18.45	9.89686
18.455	10.357	18.455	9.89636
18.46	9.73219	18.46	10.5214
18.465	10.5124	18.465	9.74148
18.47	10.4744	18.47	9.77977
18.475	9.82046	18.475	10.4339
18.48	9.95338	18.48	10.3013
18.485	10.0532	18.485	10.2018
18.49	10.1281	18.49	10.1271
18.495	10.1843	18.495	10.0711
18.5	10.2266	18.5	10.0291
18.505	10.2584	18.505	9.99751
18.51	10.2824	18.51	9.97383
18.515	10.3004	18.515	9.95606
18.52	10.314	18.52	9.9427
18.525	10.7112	18.525	9.54572
18.53	10.2404	18.53	10.0168
18.535	10.2693	18.535	9.98819
18.54	10.678	18.54	9.57977
18.545	10.6027	18.545	9.65531
18.55	10.5463	18.55	9.71194
18.555	10.5041	18.555	9.7544
18.56	10.4725	18.56	9.78622
18.565	10.4489	18.565	9.81007
18.57	10.4313	18.57	9.82793
18.575	10.4182	18.575	9.84131
18.58	10.4084	18.58	9.85133
18.585	10.4012	18.585	9.85882
18.59	10.3959	18.59	9.86441
18.595	10.3919	18.595	9.86859
18.6	10.3891	18.6	9.87171
18.605	10.387	18.605	9.87402
18.61	10.3856	18.61	9.87574
18.615	8.71915	18.615	8.21161
18.62	9.1203	18.62	8.61437
18.625	9.42123	18.625	8.9164
18.63	9.64699	18.63	9.14288
18.635	9.81638	18.635	9.31271
18.64	9.94348	18.64	9.44003
18.645	10.0389	18.645	9.53549
18.65	10.1105	18.65	9.60705
18.655	9.53877	18.655	10.2862
18.66	9.73332	18.66	10.1722
18.665	9.8793	18.665	10.0866
18.67	9.98885	18.67	10.0225
18.675	10.0711	18.675	9.97429
18.68	10.1328	18.68	9.93813
18.685	10.1792	18.685	9.91096
18.69	10.214	18.69	9.89055
18.695	10.2402	18.695	9.87521
18.7	10.2599	18.7	9.86366
18.705	10.2747	18.705	9.85496
18.71	10.2859	18.71	9.8484
18.715	10.2944	18.715	9.84344
18.72	10.3008	18.72	9.83968
18.725	10.3057	18.725	9.83682
18.73	10.3094	18.73	9.83464
18.735	10.3122	18.735	9.83297
18.74	10.3145	18.74	9.83168
18.745	10.3162	18.745	9.83067
18.75	10.3175	18.75	9.82987
18.755	10.3186	18.755	9.82924
18.76	10.3195	18.76	9.82873
18.765	10.3202	18.765	9.8283
18.77	10.3208	18.77	9.82795
18.775	10.3213	18.775	9.82765
18.78	10.3217	18.78	9.82738
18.785	10.3221	18.785	9.82714
18.79	10.3225	18.79	9.82692
18.795	10.3228	18.795	9.82672
18.8	10.3232	18.8	9.82654
18.805	10.3235	18.805	9.82636
18.81	10.3238	18.81	9.82618
18.815	10.324	18.815	9.82602
18.82	10.3243	18.82	9.82585
18.825	10.3246	18.825	9.82569
18.83	10.3248	18.83	9.82553
18.835	10.3251	18.835	9.82538
18.84	10.3254	18.84	9.82522
18.845	10.3256	18.845	9.82507
18.85	9.93893	18.85	10.2119
18.855	10.0308	18.855	10.1201
18.86	10.0998	18.86	10.0512
18.865	10.1517	18.865	9.99945
18.87	10.1906	18.87	9.96063
18.875	10.2198	18.875	9.93147
18.88	10.2418	18.88	9.90957
18.885	10.2584	18.885	9.89311
18.89	10.2709	18.89	9.88072
18.895	11.9457	18.895	11.5368
18.9	11.551	18.9	11.1279
18.905	10.6296	18.905	11.4467
18.91	10.5619	18.91	11.0626
18.915	10.5112	18.915	10.7744
18.92	10.4733	18.92	10.5583
18.925	10.0579	18.925	10.7831
18.93	10.1284	18.93	10.5699
18.935	10.1813	18.935	10.4099
18.94	10.2211	18.94	10.2899
18.945	10.251	18.945	10.1999
18.95	10.2735	18.95	10.1324
18.955	10.2905	18.955	10.0817
18.96	10.3033	18.96	10.0437
18.965	10.313	18.965	10.0152
18.97	10.3203	18.97	9.99374
18.975	10.3259	18.975	9.97766
18.98	10.3302	18.98	9.96559
18.985	10.3335	18.985	9.95651
18.99	10.3361	18.99	9.94968
18.995	10.338	18.995	9.94455
19	10.3396	19	9.94068
19.005	10.3409	19.005	9.93776
19.01	10.3419	19.01	9.93555
19.015	10.3428	19.015	9.93388
19.02	10.3435	19.02	9.9326
19.025	10.3441	19.025	9.93163
19.03	10.3447	19.03	9.93088
19.035	10.3452	19.035	9.9303
19.04	10.3456	19.04	9.92985
19.045	10.346	19.045	9.92949
19.05	10.3464	19.05	9.92921
19.055	10.3468	19.055	9.92898
19.06	10.3472	19.06	9.92878
19.065	10.3475	19.065	9.92862
19.07	10.3479	19.07	9.92848
19.075	10.3482	19.075	9.92836
19.08	10.3486	19.08	9.92825
19.085	8.68351	19.085	8.26275
19.09	9.08567	19.09	8.66449
19.095	9.38735	19.095	8.96575
19.1	9.61368	19.1	9.19166
19.105	9.39654	19.105	9.748
19.11	9.61561	19.11	9.78336
19.115	9.77998	19.115	9.80984
19.12	9.90332	19.12	9.82966
19.125	10.3828	19.125	9.45754
19.13	9.97372	19.13	9.94723
19.135	10.4358	19.135	9.54564
19.14	10.4005	19.14	9.62628
19.145	9.98714	19.145	10.0737
19.15	10.446	19.15	9.64037
19.155	10.0214	19.155	10.0842
19.16	10.0849	19.16	10.0351
19.165	10.1326	19.165	9.99828
19.17	10.1684	19.17	9.97062
19.175	10.1953	19.175	9.94984
19.18	10.2156	19.18	9.93421
19.185	10.2308	19.185	9.92246
19.19	10.2423	19.19	9.91361
19.195	9.62554	19.195	10.5324
19.2	9.78628	19.2	10.3732
19.205	9.9069	19.205	10.2538
19.21	9.99742	19.21	10.1641
19.215	10.0654	19.215	10.0969
19.22	10.1164	19.22	10.0464
19.225	10.1547	19.225	10.0085
19.23	10.1836	19.23	9.98008
19.235	10.2052	19.235	9.9587
19.24	10.2215	19.24	9.94264
19.245	10.6208	19.245	9.5436
19.25	10.1515	19.25	10.0131
19.255	10.5683	19.255	9.59638
19.26	10.4992	19.26	9.66567
19.265	10.4474	19.265	9.7176
19.27	10.4086	19.27	9.75651
19.275	10.3796	19.275	9.78565
19.28	10.3579	19.28	9.80748
19.285	10.3417	19.285	9.82381
19.29	10.3296	19.29	9.83602
19.295	10.3206	19.295	9.84515
19.3	10.3139	19.3	9.85195
19.305	10.3089	19.305	9.85702
19.31	10.3052	19.31	9.86079
19.315	10.3026	19.315	9.86357
19.32	10.3006	19.32	9.86563
19.325	10.2992	19.325	9.86713
19.33	10.2982	19.33	9.86823
19.335	10.2975	19.335	9.86901
19.34	10.2971	19.34	9.86956
19.345	10.2968	19.345	9.86994
19.35	10.2967	19.35	9.87019
19.355	10.2966	19.355	9.87034
19.36	10.2966	19.36	9.87041
19.365	10.2967	19.365	9.87043
19.37	10.2968	19.37	9.87041
19.375	10.297	19.375	9.87036
19.38	10.2972	19.38	9.87029
19.385	10.2974	19.385	9.87019
19.39	10.2976	19.39	9.87009
19.395	10.2978	19.395	9.86997
19.4	10.298	19.4	9.86985
19.405	10.2983	19.405	9.86972
19.41	10.2985	19.41	9.86959
19.415	10.2987	19.415	9.86945
19.42	10.299	19.42	9.86932
19.425	10.2992	19.425	9.86918
19.43	10.2995	19.43	9.86904
19.435	9.67421	19.435	10.4944
19.44	9.82862	19.44	10.3401
19.445	9.94448	19.445	10.2243
19.45	11.6968	19.45	11.8029
19.455	11.3603	19.455	11.3358
19.46	11.108	19.46	10.9856
19.465	10.9188	19.465	10.7229
19.47	10.777	19.47	10.5258
19.475	10.6707	19.475	10.378
19.48	10.5911	19.48	10.2671
19.485	10.5315	19.485	10.184
19.49	10.4868	19.49	10.1216
19.495	10.4534	19.495	10.0748
19.5	10.4285	19.5	10.0396
19.505	10.4098	19.505	10.0133
19.51	10.3959	19.51	9.99349
19.515	10.3855	19.515	9.97863
19.52	10.3779	19.52	9.96747
19.525	10.3722	19.525	9.95909
19.53	10.368	19.53	9.95279
19.535	10.3649	19.535	9.94804
19.54	10.3627	19.54	9.94447
19.545	10.3611	19.545	9.94177
19.55	10.36	19.55	9.93973
19.555	10.3593	19.555	9.93819
19.56	10.3588	19.56	9.93701
19.565	10.3585	19.565	9.93612
19.57	10.3584	19.57	9.93543
19.575	10.3584	19.575	9.9349
19.58	10.3584	19.58	9.93448
19.585	10.3586	19.585	9.93415
19.59	10.3588	19.59	9.93389
19.595	10.359	19.595	9.93368
19.6	10.3592	19.6	9.9335
19.605	9.97252	19.605	10.3203
19.61	10.4514	19.61	9.84158
19.615	10.4288	19.615	9.86438
19.62	10.0249	19.62	10.2684
19.625	10.104	19.625	10.1896
19.63	10.1634	19.63	10.1304
19.635	10.208	19.635	10.086
19.64	10.2415	19.64	10.0527
19.645	10.2668	19.645	10.0277
19.65	10.2858	19.65	10.009
19.655	10.3001	19.655	9.99486
19.66	10.3109	19.66	9.98428
19.665	10.3191	19.665	9.97633
19.67	9.6999	19.67	10.5958
19.675	9.85881	19.675	10.4372
19.68	9.97808	19.68	10.3182
19.685	10.0676	19.685	10.2289
19.69	10.1348	19.69	10.1619
19.695	10.1853	19.695	10.1117
19.7	10.2233	19.7	10.074
19.705	10.2518	19.705	10.0457
19.71	10.2733	19.71	10.0245
19.715	8.62411	19.715	8.34312
19.72	9.03816	19.72	8.73298
19.725	9.34875	19.725	9.02534
19.73	9.19481	19.73	9.63152
19.735	9.46129	19.735	9.70425
19.74	10.0481	19.74	9.37183
19.745	9.71954	19.745	9.89128
19.75	10.242	19.75	9.51203
19.755	10.252	19.755	9.60942
19.76	10.2595	19.76	9.68243
19.765	10.2653	19.765	9.73715
19.77	9.88267	19.77	10.1651
19.775	10.3646	19.775	9.71722
19.78	10.3442	19.78	9.76315
19.785	9.94209	19.785	10.1845
19.79	10.4093	19.79	9.73167
19.795	10.378	19.795	9.77387
19.8	10.3545	19.8	9.8055
19.805	9.95004	19.805	10.2161
19.81	10.0286	19.81	10.1422
19.815	9.4621	19.815	10.7122
19.82	10.0475	19.82	10.1294
19.825	10.1047	19.825	10.0742
19.83	10.1477	19.83	10.0328
19.835	9.7931	19.835	10.3886
19.84	10.296	19.84	9.8866
19.845	10.2913	19.845	9.89194
19.85	10.2879	19.85	9.89592
19.855	10.2854	19.855	9.89887
19.86	10.2836	19.86	9.90105
19.865	10.2823	19.865	9.90265
19.87	10.2814	19.87	9.90382
19.875	10.2807	19.875	9.90466
19.88	10.2803	19.88	9.90526
19.885	10.2801	19.885	9.90567
19.89	10.2799	19.89	9.90595
19.895	10.2799	19.895	9.90613
19.9	10.2799	19.9	9.90623
19.905	10.28	19.905	9.90627
19.91	10.2801	19.91	9.90626
19.915	10.2803	19.915	9.90623
19.92	10.2804	19.92	9.90617
19.925	10.2806	19.925	9.90609
19.93	9.65535	19.93	10.5315
19.935	9.80972	19.935	10.3772
19.94	9.92555	19.94	10.2615
19.945	10.0125	19.945	10.1747
19.95	10.0777	19.95	10.1095
19.955	10.1267	19.955	10.0606
19.96	10.1636	19.96	10.0239
19.965	10.1912	19.965	9.99634
19.97	10.212	19.97	9.97563
19.975	10.2277	19.975	9.96007
19.98	10.2395	19.98	9.94837
19.985	10.2484	19.985	9.93956
19.99	10.2551	19.99	9.93292
19.995	10.2603	19.995	9.92791
20	-2.88516	20	-3.22519
20.005	-2.89963	20.005	-3.24552
20.01	-2.91479	20.01	-3.26516
20.015	-1.26507	20.015	-1.61889
20.02	-1.68296	20.02	-2.03946
20.025	-2.00067	20.025	-2.35926
20.03	-2.86871	20.03	-1.97801
20.035	-2.90076	20.035	-2.31972
20.04	-2.92908	20.04	-2.58037
20.045	-3.19315	20.045	-2.54171
20.05	-3.15407	20.05	-2.75849
20.055	-1.46366	20.055	-1.26005
20.06	-1.85102	20.06	-1.79147
20.065	-1.10588	20.065	0.0964811
20.07	-1.57891	20.07	-0.766053
20.075	-1.93792	20.075	-1.41729
20.08	-0.546039	20.08	-0.244654
20.085	-1.78273	20.085	-0.394906
20.09	-0.425815	20.09	0.530214
20.095	-1.06323	20.095	-0.431135
20.1	-1.78405	20.1	-0.917909
20.105	-0.422064	20.105	0.136705
20.11	-1.05567	20.11	-0.727503
20.115	-0.495148	20.115	0.910943
20.12	0.945788	20.12	1.13981
20.125	1.02949	20.125	2.32907
20.13	1.7259	20.13	2.60803
20.135	1.63312	20.135	3.45303
20.14	2.58415	20.14	3.0869
20.145	4.35284	20.145	5.10844
20.15	4.28033	20.15	4.74268
20.155	5.66329	20.155	6.38269
20.16	5.30153	20.16	5.73085
20.165	3.37536	20.165	3.58703
20.17	8.34981	20.17	8.87525
20.175	7.76693	20.175	7.27092
20.18	10.0508	20.18	10.0294
20.185	8.714	20.185	8.56572
20.19	7.48357	20.19	7.71712
20.195	10.1437	20.195	10.1807
20.2	9.2347	20.2	8.35039
20.205	11.2742	20.205	10.9396
20.21	10.1412	20.21	8.96212
20.215	8.92045	20.215	7.8717
20.22	13.3989	20.22	11.674
20.225	11.4342	20.225	9.96576
20.23	10.3586	20.23	8.30858
20.235	10.6079	20.235	9.36244
20.24	11.0619	20.24	9.93692
20.245	10.1495	20.245	8.34096
20.25	12.8122	20.25	10.4807
20.255	11.1367	20.255	9.17677
20.26	9.89124	20.26	8.2099
20.265	11.4077	20.265	8.38739
20.27	10.1416	20.27	7.64453
20.275	9.20328	20.275	7.09858
20.28	14.5469	20.28	13.9874
20.285	12.9727	20.285	11.5515
20.29	11.8085	20.29	9.73088
20.295	17.6134	20.295	15.0333
20.3	14.9932	20.3	12.7998
20.305	14.7049	20.305	12.8015
20.31	18.2326	20.31	15.7727
20.315	15.5554	20.315	13.4418
20.32	18.9423	20.32	16.3145
20.325	15.7727	20.325	14.2969
20.33	13.7891	20.33	12.4134
20.335	13.9786	20.335	12.678
20.34	14.534	20.34	12.5157
20.345	12.5427	20.345	11.5237
20.35	13.4953	20.35	11.6881
20.355	12.1889	20.355	10.5542
20.36	11.221	20.36	9.7157
20.365	12.1724	20.365	10.7641
20.37	10.8602	20.37	10.2983
20.375	10.8953	20.375	8.95363
20.38	13.6412	20.38	11.9111
20.385	12.4109	20.385	10.8395
20.39	11.5003	20.39	10.0478
20.395	12.108	20.395	11.5184
20.4	11.3068	20.4	10.6008
20.405	10.3312	20.405	10.3116
20.41	11.6589	20.41	11.3903
20.415	11.016	20.415	10.5607
20.42	10.5461	20.42	9.95065
20.425	11.4845	20.425	11.5577
20.43	10.9315	20.43	10.7424
20.435	10.1421	20.435	10.5302
20.44	11.2228	20.44	12.0538
20.445	10.7766	20.445	11.1761
20.45	9.02755	20.45	8.62623
20.455	10.4161	20.455	10.6708
20.46	10.2009	20.46	10.1839
20.465	9.66506	20.465	10.218
20.47	12.2144	20.47	13.9789
20.475	11.6009	20.475	12.7465
20.48	11.1534	20.48	11.8347
20.485	10.4433	20.485	11.5503
20.49	9.91833	20.49	11.3546
20.495	9.91906	20.495	10.8386
20.5	12.4891	20.5	14.5688
20.505	10.226	20.505	11.6482
20.51	15.0399	20.51	16.2658
20.515	13.464	20.515	15.0356
20.52	11.0114	20.52	12.0784
20.525	13.3924	20.525	15.6288
20.53	12.2661	20.53	14.6258
20.535	11.8161	20.535	13.5045
20.54	12.7699	20.54	14.7287
20.545	11.8422	20.545	14.0139
20.55	9.87588	20.55	11.4434
20.555	10.3035	20.555	10.9408
20.56	9.38335	20.56	11.8306
20.565	9.94989	20.565	11.2672
20.57	11.0379	20.57	13.5382
20.575	10.9798	20.575	12.8399
20.58	12.2277	20.58	14.3815
20.585	9.85539	20.585	12.2395
20.59	10.509	20.59	11.5281
20.595	10.2434	20.595	11.7764
20.6	10.4393	20.6	11.5939
20.605	8.93396	20.605	9.80468
20.61	9.08206	20.61	10.5137
20.615	7.92279	20.615	9.01131
20.62	8.33045	20.62	9.93547
20.625	8.64432	20.625	10.6468
20.63	9.2748	20.63	10.8116
20.635	8.0955	20.635	9.28295
20.64	8.87515	20.64	9.80053
20.645	7.4208	20.645	8.92346
20.65	8.37606	20.65	9.54786
20.655	9.10577	20.655	10.0294
20.66	8.00095	20.66	8.73834
20.665	7.55807	20.665	7.38184
20.67	8.50823	20.67	8.41045
20.675	9.23417	20.675	9.19515
20.68	8.12655	20.68	8.13154
20.685	8.96006	20.685	8.99799
20.69	7.54621	20.69	8.38267
20.695	6.86653	20.695	7.53809
20.7	8.02101	20.7	8.56883
20.705	7.23484	20.705	7.68979
20.71	6.64409	20.71	7.02931
20.715	7.86528	20.715	8.19814
20.72	7.51611	20.72	7.03575
20.725	8.53666	20.725	8.21003
20.73	7.26313	20.73	7.82564
20.735	7.0757	20.735	6.76736
20.74	7.59208	20.74	8.64524
20.745	7.33762	20.745	7.39139
20.75	6.76383	20.75	6.83173
20.755	8.38475	20.755	7.68929
20.76	9.23202	20.76	8.72771
20.765	10.2679	20.765	9.13297
20.77	9.01101	20.77	8.16681
20.775	9.10725	20.775	9.73198
20.78	8.53775	20.78	8.24368
20.785	7.72776	20.785	7.50825
20.79	8.78466	20.79	8.62101
20.795	9.59086	20.795	9.46904
20.8	8.54365	20.8	8.45315
20.805	8.14423	20.805	7.30325
20.81	9.12723	20.81	8.48707
20.815	7.97411	20.815	7.96156
20.82	9.01513	20.82	8.99041
20.825	8.53102	20.825	7.72323
20.83	7.78515	20.83	7.15371
20.835	8.89022	20.835	8.39099
20.84	8.45416	20.84	7.28014
20.845	9.17121	20.845	8.73183
20.85	8.29863	20.85	7.92735
20.855	9.3087	20.855	8.98843
20.86	10.0799	20.86	9.79783
20.865	9.39348	20.865	8.36612
20.87	8.8829	20.87	7.28635
20.875	9.78265	20.875	8.52287
20.88	8.80574	20.88	7.79848
20.885	7.83369	20.885	7.49283
20.89	9.01063	20.89	8.6867
20.895	8.24162	20.895	7.93033
20.9	9.7164	20.9	8.64064
20.905	8.78893	20.905	7.90349
20.91	10.1449	20.91	8.62822
20.915	8.50283	20.915	8.5274
20.92	7.89379	20.92	7.82767
20.925	9.10163	20.925	8.96745
20.93	8.35586	20.93	8.17057
20.935	10.2351	20.935	8.46361
20.94	10.8945	20.94	9.46083
20.945	9.73748	20.945	8.55707
20.95	8.63045	20.95	8.11702
20.955	9.70627	20.955	9.2102
20.96	8.86154	20.96	8.37843
20.965	9.89269	20.965	9.41925
20.97	9.40142	20.97	8.16129
20.975	10.3158	20.975	9.26435
20.98	9.35007	20.98	8.44004
20.985	8.6251	20.985	7.82109
20.99	9.12062	20.99	9.64704
20.995	8.464	20.995	8.74164
21	7.97089	21	8.0619
21.005	9.65276	21.005	8.82984
21.01	8.88078	21.01	8.1361
21.015	8.30117	21.015	7.61512
21.02	9.53124	21.02	8.8891
21.025	9.18923	21.025	7.80609
21.03	7.92478	21.03	8.00053
21.035	9.26451	21.035	9.18782
21.04	8.61782	21.04	8.42676
21.045	8.13222	21.045	7.85533
21.05	9.43283	21.05	9.09152
21.055	8.75683	21.055	8.36715
21.06	8.24926	21.06	7.82325
21.065	7.86801	21.065	7.41472
21.07	9.24691	21.07	8.77309
21.075	8.00416	21.075	8.76586
21.08	7.69482	21.08	8.13657
21.085	7.46227	21.085	7.66401
21.09	7.2873	21.09	7.30899
21.095	8.82093	21.095	8.70752
21.1	8.70667	21.1	7.718
21.105	8.23858	21.105	7.35715
21.11	9.55238	21.11	8.75133
21.115	8.26085	21.115	8.771
21.12	7.91496	21.12	8.16192
21.125	9.32042	21.125	9.36994
21.13	9.11008	21.13	8.23759
21.135	8.56997	21.135	7.76965
21.14	8.1644	21.14	7.41815
21.145	9.52512	21.145	8.81939
21.15	8.89429	21.15	8.2189
21.155	8.4207	21.155	7.76802
21.16	8.06503	21.16	7.42934
21.165	7.79781	21.165	7.17481
21.17	8.63684	21.17	9.27427
21.175	7.85108	21.175	8.96115
21.18	9.69552	21.18	9.62239
21.185	9.04565	21.185	8.84881
21.19	8.55782	21.19	8.26815
21.195	8.19151	21.195	7.83217
21.2	8.95625	21.2	9.79559
21.205	8.50177	21.205	8.99353
21.21	8.1605	21.21	8.39152
21.215	7.90412	21.215	7.93955
21.22	7.71142	21.22	7.60012
21.225	9.23188	21.225	9.01048
21.23	8.72093	21.23	8.41691
21.235	8.33731	21.235	7.9713
21.24	8.04921	21.24	7.63665
21.245	9.49812	21.245	9.05062
21.25	8.93354	21.25	8.45978
21.255	7.88424	21.255	8.64171
21.26	7.72016	21.26	8.15446
21.265	9.26212	21.265	9.45401
21.27	8.76733	21.27	8.77737
21.275	8.39588	21.275	8.26949
21.28	8.11693	21.28	7.88818
21.285	8.2943	21.285	7.21484
21.29	8.0451	21.29	7.09131
21.295	7.4709	21.295	7.3852
21.3	9.47409	21.3	8.50181
21.305	8.94338	21.305	8.06985
21.31	7.91953	21.31	8.37098
21.315	7.77457	21.315	7.97317
21.32	7.66551	21.32	7.67444
21.325	7.58337	21.325	7.45
21.33	7.13448	21.33	7.66824
21.335	8.84472	21.335	9.11507
21.34	8.47619	21.34	8.54894
21.345	8.58642	21.345	7.73703
21.35	8.2869	21.35	7.50961
21.355	8.06193	21.355	7.33867
21.36	7.26741	21.36	7.83559
21.365	7.29446	21.365	7.58465
21.37	8.97982	21.37	9.06147
21.375	8.59264	21.375	8.51786
21.38	8.30195	21.38	8.1098
21.385	8.08363	21.385	7.80342
21.39	7.91958	21.39	7.57329
21.395	7.79624	21.395	7.40036
21.4	9.36883	21.4	8.93571
21.405	8.89709	21.405	8.436
21.41	8.54299	21.41	8.0609
21.415	8.27714	21.415	7.77926
21.42	7.45198	21.42	8.19318
21.425	7.4561	21.425	7.88002
21.43	9.12429	21.43	9.31023
21.435	8.72428	21.435	8.7317
21.44	8.81095	21.44	7.91054
21.445	8.49382	21.445	7.67624
21.45	8.2557	21.45	7.50021
21.455	8.07684	21.455	7.36789
21.46	7.94243	21.46	7.26834
21.465	7.84135	21.465	7.19338
21.47	7.1398	21.47	7.76233
21.475	8.90203	21.475	9.23087
21.48	8.57256	21.48	8.6811
21.485	8.32521	21.485	8.26849
21.49	8.13945	21.49	7.95875
21.495	7.99988	21.495	7.72616
21.5	9.56034	21.5	9.21683
21.505	9.07957	21.505	8.68368
21.51	8.71876	21.51	8.28356
21.515	8.44792	21.515	7.9832
21.52	8.24456	21.52	7.75766
21.525	7.85328	21.525	7.82679
21.53	7.80099	21.53	7.63696
21.535	7.76154	21.535	7.49432
21.54	7.73172	21.54	7.38708
21.545	9.37452	21.545	8.97179
21.55	8.95552	21.55	8.50918
21.555	8.64105	21.555	8.16198
21.56	8.40499	21.56	7.90134
21.565	8.22773	21.565	7.70562
21.57	8.09458	21.57	7.55858
21.575	7.9945	21.575	7.44806
21.58	7.29374	21.58	7.99041
21.585	7.39124	21.585	7.77365
21.59	7.46414	21.59	7.61084
21.595	7.51861	21.595	7.48849
21.6	7.55925	21.6	7.39649
21.605	9.64185	21.605	8.60569
21.61	9.17086	21.61	8.24335
21.615	8.81741	21.615	7.97136
21.62	8.55214	21.62	7.76715
21.625	8.35298	21.625	7.61377
21.63	8.20343	21.63	7.49851
21.635	8.09106	21.635	7.41184
21.64	8.0066	21.64	7.34662
21.645	7.94305	21.645	7.29748
21.65	7.8952	21.65	7.2604
21.655	7.85912	21.655	7.23237
21.66	7.83186	21.66	7.21112
21.665	7.81122	21.665	7.19496
21.67	7.17007	21.67	7.8081
21.675	7.31228	21.675	7.64446
21.68	7.41874	21.68	7.52151
21.685	7.4984	21.685	7.42907
21.69	9.22334	21.69	9.02492
21.695	8.86597	21.695	8.5707
21.7	8.59778	21.7	8.22984
21.705	8.39645	21.705	7.97399
21.71	8.24528	21.71	7.7819
21.715	8.51867	21.715	7.25069
21.72	7.7162	21.72	7.85942
21.725	7.73743	21.725	7.69249
21.73	7.75318	21.73	7.56709
21.735	7.76482	21.735	7.47284
21.74	7.77337	21.74	7.40195
21.745	7.39266	21.745	7.73553
21.75	7.48881	21.75	7.60365
21.755	7.56075	21.755	7.50453
21.76	7.61453	21.76	7.42999
21.765	7.65468	21.765	7.37389
21.77	8.07157	21.77	6.94466
21.775	8.00219	21.775	7.0044
21.78	9.61538	21.78	8.7144
21.785	9.17422	21.785	8.34583
21.79	8.84319	21.79	8.06921
21.795	8.59476	21.795	7.86157
21.8	8.40828	21.8	7.70565
21.805	7.64278	21.805	8.21401
21.81	7.69177	21.81	7.97183
21.815	7.72835	21.815	7.79001
21.82	7.75563	21.82	7.65346
21.825	7.77593	21.825	7.55087
21.83	7.791	21.83	7.47375
21.835	7.80214	21.835	7.41572
21.84	7.81033	21.84	7.37202
21.845	7.81632	21.845	7.33906
21.85	7.82065	21.85	7.31416
21.855	7.82374	21.855	7.2953
21.86	7.8259	21.86	7.28098
21.865	7.82736	21.865	7.27005
21.87	7.8283	21.87	7.26167
21.875	7.82884	21.875	7.25521
21.88	7.82909	21.88	7.25018
21.885	8.21607	21.885	6.85928
21.89	8.12427	21.89	6.94779
21.895	8.05527	21.895	7.01399
21.9	7.37788	21.9	7.68893
21.905	9.15834	21.905	9.23709
21.91	8.84266	21.91	8.74715
21.915	8.60575	21.915	8.37953
21.92	8.42793	21.92	8.10366
21.925	8.29443	21.925	7.89659
21.93	8.19416	21.93	7.74113
21.935	8.11881	21.935	7.62437
21.94	8.06217	21.94	7.53664
21.945	7.63259	21.945	7.85762
21.95	7.69214	21.95	7.71634
21.955	8.1236	21.955	7.22326
21.96	7.67825	21.96	7.62211
21.965	7.72596	21.965	7.53922
21.97	7.7616	21.97	7.47688
21.975	7.78819	21.975	7.42997
21.98	8.19494	21.98	7.00768
21.985	8.11799	21.985	7.07267
21.99	8.06014	21.99	7.12124
21.995	8.01661	21.995	7.15751
22	7.98383	22	7.18455
22.005	7.9591	22.005	7.20467
22.01	7.31493	22.01	7.84508
22.015	7.45493	22.015	7.70195
22.02	8.18527	22.02	6.96897
22.025	7.48414	22.025	7.66782
22.03	8.20689	22.03	6.94304
22.035	8.12555	22.035	7.02257
22.04	7.43892	22.04	7.70754
22.045	7.54708	22.045	7.59783
22.05	7.24111	22.05	7.90233
22.055	7.39336	22.055	7.74868
22.06	7.5074	22.06	7.63329
22.065	7.59279	22.065	7.54658
22.07	7.65669	22.07	7.48139
22.075	7.70448	22.075	7.43233
22.08	7.74017	22.08	7.39538
22.085	8.15375	22.085	6.98056
22.09	8.08193	22.09	7.05115
22.095	8.02792	22.095	7.10393
22.1	7.98727	22.1	7.14335
22.105	7.95664	22.105	7.17276
22.11	7.93353	22.11	7.19465
22.115	7.91605	22.115	7.21091
22.12	7.51585	22.12	7.60989
22.125	7.59743	22.125	7.5271
22.13	7.65847	22.13	7.46485
22.135	7.70411	22.135	7.418
22.14	7.7382	22.14	7.3827
22.145	7.76362	22.145	7.35606
22.15	9.44795	22.15	9.00132
22.155	9.06017	22.155	8.58423
22.16	8.76922	22.16	8.27127
22.165	8.55088	22.165	8.03641
22.17	8.38701	22.17	7.86012
22.175	8.26398	22.175	7.72777
22.18	8.17159	22.18	7.62836
22.185	7.47669	22.185	8.17914
22.19	8.20414	22.19	7.34333
22.195	7.50086	22.195	7.96509
22.2	7.59655	22.2	7.80799
22.205	7.90672	22.205	7.45149
22.21	7.27234	22.21	8.05087
22.215	8.04519	22.215	7.2515
22.22	8.00143	22.22	7.27511
22.225	7.343	22.225	7.91816
22.23	8.09781	22.23	7.15155
22.235	7.41505	22.235	7.8252
22.24	7.52612	22.24	7.70703
22.245	7.6093	22.245	7.61826
22.25	7.67157	22.25	7.55154
22.255	7.71814	22.255	7.50136
22.26	7.75295	22.26	7.46358
22.265	7.77893	22.265	7.43511
22.27	7.79829	22.27	7.41362
22.275	7.81269	22.275	7.39735
22.28	7.43642	22.28	7.77196
22.285	7.53596	22.285	7.67091
22.29	7.61049	22.29	7.59499
22.295	7.66626	22.295	7.5379
22.3	7.70797	22.3	7.49495
22.305	7.35218	22.305	7.84953
22.31	7.46708	22.31	7.73347
22.315	7.55313	22.315	7.64628
22.32	7.61755	22.32	7.58075
22.325	7.66573	22.325	7.53146
22.33	7.70175	22.33	7.49435
22.335	7.72864	22.335	7.46638
22.34	7.74868	22.34	7.44526
22.345	7.76359	22.345	7.42928
22.35	7.77465	22.35	7.41715
22.355	7.78282	22.355	7.40792
22.36	7.78883	22.36	7.40085
22.365	7.79321	22.365	7.39541
22.37	7.79637	22.37	7.39119
22.375	7.79862	22.375	7.38788
22.38	7.80018	22.38	7.38526
22.385	7.41428	22.385	7.7701
22.39	7.5066	22.39	7.67673
22.395	7.57571	22.395	7.60655
22.4	7.62743	22.4	7.55378
22.405	7.66609	22.405	7.51406
22.41	7.30801	22.41	7.87108
22.415	7.80815	22.415	7.36989
22.42	7.80126	22.42	7.37572
22.425	7.40902	22.425	7.7669
22.43	7.88353	22.43	7.29134
22.435	7.85742	22.435	7.31638
22.44	7.83772	22.44	7.33503
22.445	9.48822	22.445	9.01427
22.45	9.07509	22.45	8.62269
22.455	8.76514	22.455	8.32888
22.46	8.53258	22.46	8.1084
22.465	8.35805	22.465	7.94292
22.47	7.8401	22.47	8.20563
22.475	7.8334	22.475	8.02068
22.48	7.82828	22.48	7.88185
22.485	7.82432	22.485	7.7776
22.49	7.82126	22.49	7.69929
22.495	7.81885	22.495	7.64044
22.5	7.81694	22.5	7.59618
22.505	7.81541	22.505	7.56286
22.51	7.81415	22.51	7.53775
22.515	7.81311	22.515	7.5188
22.52	7.81222	22.52	7.50446
22.525	7.81145	22.525	7.49359
22.53	7.81077	22.53	7.48531
22.535	7.81015	22.535	7.47898
22.54	7.80958	22.54	7.47411
22.545	7.80905	22.545	7.47034
22.55	7.80855	22.55	7.46739
22.555	7.80807	22.555	7.46506
22.56	7.80761	22.56	7.46318
22.565	7.80716	22.565	7.46166
22.57	7.80671	22.57	7.46039
22.575	7.80627	22.575	7.45932
22.58	7.80584	22.58	7.45839
22.585	7.80541	22.585	7.45758
22.59	7.80499	22.59	7.45685
22.595	7.80457	22.595	7.45617
22.6	7.80414	22.6	7.45555
22.605	7.80372	22.605	7.45496
22.61	7.8033	22.61	7.45439
22.615	7.41594	22.615	7.8408
22.62	7.89412	22.62	7.36166
22.625	7.87079	22.625	7.38406
22.63	7.85318	22.63	7.40073
22.635	7.83988	22.635	7.41312
22.64	7.82979	22.64	7.42228
22.645	7.82213	22.645	7.42904
22.65	7.81627	22.65	7.43398
22.655	7.81178	22.655	7.43757
22.66	7.8083	22.66	7.44014
22.665	7.80559	22.665	7.44194
22.67	7.80345	22.67	7.44317
22.675	7.80174	22.675	7.44397
22.68	7.80036	22.68	7.44445
22.685	7.79921	22.685	7.44469
22.69	7.79825	22.69	7.44475
22.695	7.41048	22.695	7.83162
22.7	7.50141	22.7	7.73978
22.705	7.56951	22.705	7.67078
22.71	7.62047	22.71	7.61891
22.715	7.6586	22.715	7.57989
22.72	7.68708	22.72	7.5505
22.725	7.70834	22.725	7.52834
22.73	7.72418	22.73	7.51159
22.735	7.73596	22.735	7.49891
22.74	7.74469	22.74	7.48928
22.745	7.75113	22.745	7.48194
22.75	7.75586	22.75	7.47631
22.755	7.7593	22.755	7.47196
22.76	8.38725	22.76	6.8431
22.765	8.23485	22.765	6.99461
22.77	7.49496	22.77	7.73359
22.775	8.18869	22.775	7.03896
22.78	8.08561	22.78	7.14113
22.785	8.0082	22.785	7.21764
22.79	7.32456	22.79	7.90038
22.795	8.06047	22.795	7.16356
22.8	7.98904	22.8	7.23409
22.805	7.93535	22.805	7.28687
22.81	7.89499	22.81	7.32633
22.815	9.53001	22.815	9.0212
22.82	9.1053	22.82	8.64136
22.825	8.78668	22.825	8.35637
22.83	8.54763	22.83	8.14253
22.835	8.36826	22.835	7.98205
22.84	8.23365	22.84	7.86158
22.845	8.13261	22.845	7.77112
22.85	8.05674	22.85	7.70318
22.855	7.99975	22.855	7.65212
22.86	7.95693	22.86	7.61372
22.865	7.92473	22.865	7.58482
22.87	7.9005	22.87	7.56304
22.875	7.88224	22.875	7.5466
22.88	7.86846	22.88	7.53417
22.885	7.85804	22.885	7.52474
22.89	7.85014	22.89	7.51756
22.895	7.45719	22.895	7.89903
22.9	7.54425	22.9	7.80316
22.905	7.60947	22.905	7.73115
22.91	7.65829	22.91	7.67704
22.915	8.08178	22.915	7.24941
22.92	7.63049	22.92	7.69739
22.925	8.06076	22.925	7.26447
22.93	8.00151	22.93	7.32153
22.935	7.95698	22.935	7.36423
22.94	7.92351	22.94	7.39615
22.945	7.89832	22.945	7.41999
22.95	7.87934	22.95	7.43776
22.955	7.47808	22.955	7.83793
22.96	7.55891	22.96	7.7561
22.965	7.61945	22.965	7.69461
22.97	7.66477	22.97	7.6484
22.975	7.69868	22.975	7.61363
22.98	7.72402	22.98	7.58746
22.985	8.36843	22.985	6.94224
22.99	8.22838	22.99	7.0815
22.995	8.12326	22.995	7.18584
23	8.04433	23	7.26398
23.005	7.98506	23.005	7.32249
23.01	7.94052	23.01	7.36627
23.015	7.90703	23.015	7.399
23.02	7.88183	23.02	7.42344
23.025	7.86284	23.025	7.44166
23.03	7.84852	23.03	7.45523
23.035	7.8377	23.035	7.4653
23.04	7.8295	23.04	7.47275
23.045	7.82327	23.045	7.47823
23.05	7.43156	23.05	7.86918
23.055	7.51956	23.055	7.78043
23.06	7.58548	23.06	7.71376
23.065	7.63484	23.065	7.66365
23.07	7.67177	23.07	7.62597
23.075	7.69939	23.075	7.5976
23.08	7.33307	23.08	7.96317
23.085	7.44012	23.085	7.85537
23.09	7.90726	23.09	7.38748
23.095	7.48873	23.095	7.80526
23.1	7.55661	23.1	7.73663
23.105	7.60744	23.105	7.68505
23.11	7.64548	23.11	7.64627
23.115	7.67392	23.115	7.61707
23.12	7.69517	23.12	7.59507
23.125	7.71103	23.125	7.57847
23.13	7.72283	23.13	7.56591
23.135	7.73161	23.135	7.55639
23.14	8.36358	23.14	6.92366
23.145	7.58873	23.145	7.69776
23.15	7.63078	23.15	7.65496
23.155	8.28771	23.155	6.99728
23.16	7.53158	23.16	7.75266
23.165	7.8262	23.165	7.45729
23.17	7.80568	23.17	7.47706
23.175	7.79021	23.175	7.49179
23.18	7.77852	23.18	7.50272
23.185	7.76967	23.185	7.51082
23.19	7.76295	23.19	7.51679
23.195	7.75783	23.195	7.52116
23.2	7.75391	23.2	7.52434
23.205	7.75088	23.205	7.52661
23.21	7.74853	23.21	7.52821
23.215	7.74669	23.215	7.52931
23.22	7.74522	23.22	7.53002
23.225	7.74404	23.225	7.53045
23.23	7.74307	23.23	7.53067
23.235	7.74226	23.235	7.53073
23.24	7.74157	23.24	7.53067
23.245	7.74097	23.245	7.53052
23.25	7.74044	23.25	7.5303
23.255	7.35302	23.255	7.91698
23.26	7.44423	23.26	7.82502
23.265	7.51256	23.265	7.75594
23.27	7.56372	23.27	7.70402
23.275	7.60201	23.275	7.66498
23.28	7.63064	23.28	7.6356
23.285	7.65204	23.285	7.61346
23.29	7.668	23.29	7.59674
23.295	7.67989	23.295	7.5841
23.3	7.68873	23.3	7.57452
23.305	8.32075	23.305	6.94174
23.31	8.17142	23.31	7.09033
23.315	8.05933	23.315	7.20166
23.32	7.97519	23.32	7.28505
23.325	7.912	23.325	7.34749
23.33	7.86453	23.33	7.39421
23.335	7.82884	23.335	7.42915
23.34	7.802	23.34	7.45525
23.345	7.78178	23.345	7.47471
23.35	7.76654	23.35	7.4892
23.355	7.75503	23.355	7.49997
23.36	7.35936	23.36	7.89488
23.365	7.83135	23.365	7.42215
23.37	7.41644	23.37	7.8363
23.375	7.48705	23.375	7.76495
23.38	7.53992	23.38	7.71133
23.385	7.57949	23.385	7.671
23.39	7.60909	23.39	7.64066
23.395	7.63121	23.395	7.61779
23.4	7.64771	23.4	7.60053
23.405	8.04696	23.405	7.20054
23.41	7.96445	23.41	7.2823
23.415	7.51553	23.415	7.73046
23.42	7.56063	23.42	7.68461
23.425	7.59438	23.425	7.65012
23.43	7.6196	23.43	7.62414
23.435	7.63844	23.435	7.60455
23.44	7.65249	23.44	7.58975
23.445	7.66295	23.445	7.57855
23.45	7.6707	23.45	7.57004
23.455	7.67644	23.455	7.56355
23.46	7.68067	23.46	7.55858
23.465	7.68375	23.465	7.55474
23.47	7.68598	23.47	7.55176
23.475	7.68758	23.475	7.54942
23.48	7.68869	23.48	7.54755
23.485	7.68945	23.485	7.54605
23.49	7.68993	23.49	7.54482
23.495	9.98109	23.495	8.5837
23.5	9.1867	23.5	8.57369
23.505	8.83225	23.505	8.32469
23.51	9.19183	23.51	7.51237
23.515	8.83818	23.515	7.52631
23.52	8.57289	23.52	7.53668
23.525	7.74837	23.525	8.16985
23.53	8.37868	23.53	7.39589
23.535	8.22808	23.535	7.4386
23.54	8.11506	23.54	7.47055
23.545	7.64329	23.545	7.88137
23.55	7.67127	23.55	7.80753
23.555	8.07914	23.555	7.36512
23.56	7.61617	23.56	7.80203
23.565	7.65074	23.565	7.74776
23.57	7.67661	23.57	7.70697
23.575	7.69595	23.575	7.67629
23.58	7.7104	23.58	7.65319
23.585	8.10812	23.585	7.24884
23.59	8.02448	23.59	7.32734
23.595	7.96169	23.595	7.38614
23.6	7.91454	23.6	7.43015
23.605	7.87911	23.605	7.46306
23.61	7.85248	23.61	7.48766
23.615	7.83245	23.615	7.50602
23.62	7.81736	23.62	7.51971
23.625	7.80599	23.625	7.52988
23.63	7.79739	23.63	7.53743
23.635	7.79089	23.635	7.543
23.64	7.78595	23.64	7.54708
23.645	7.78218	23.645	7.55006
23.65	7.77929	23.65	7.55221
23.655	7.77707	23.655	7.55373
23.66	7.77534	23.66	7.55478
23.665	7.77398	23.665	7.55549
23.67	7.7729	23.67	7.55592
23.675	7.77203	23.675	7.55617
23.68	7.77131	23.68	7.55626
23.685	7.77072	23.685	7.55624
23.69	7.77021	23.69	7.55614
23.695	7.76976	23.695	7.55597
23.7	7.76937	23.7	7.55576
23.705	7.76901	23.705	7.55552
23.71	8.00722	23.71	7.31671
23.715	7.31893	23.715	8.0044
23.72	8.0514	23.72	7.27133
23.725	7.73888	23.725	7.58325
23.73	7.98438	23.73	7.33715
23.735	7.92703	23.735	7.3939
23.74	7.64543	23.74	7.67491
23.745	7.67557	23.745	7.64417
23.75	8.3236	23.75	6.99554
23.755	8.18629	23.755	7.13226
23.76	7.45776	23.76	7.86019
23.765	8.16006	23.765	7.15729
23.77	8.06345	23.77	7.2533
23.775	7.99093	23.775	7.32522
23.78	7.93649	23.78	7.37908
23.785	7.89559	23.785	7.41938
23.79	7.86486	23.79	7.44951
23.795	7.84175	23.795	7.47202
23.8	7.82436	23.8	7.48882
23.805	7.81125	23.805	7.50133
23.81	7.80136	23.81	7.51062
23.815	7.79389	23.815	7.5175
23.82	7.78822	23.82	7.52257
23.825	7.78391	23.825	7.52628
23.83	7.78062	23.83	7.52898
23.835	7.77809	23.835	7.53092
23.84	7.77613	23.84	7.53228
23.845	7.7746	23.845	7.53321
23.85	7.77339	23.85	7.53382
23.855	7.77243	23.855	7.53419
23.86	7.77164	23.86	7.53437
23.865	7.77099	23.865	7.53443
23.87	7.77045	23.87	7.53438
23.875	7.76998	23.875	7.53425
23.88	7.76957	23.88	7.53407
23.885	7.7692	23.885	7.53384
23.89	6.10346	23.89	5.86818
23.895	6.50497	23.895	6.26973
23.9	6.80603	23.9	6.57077
23.905	7.03174	23.905	6.79645
23.91	7.20095	23.91	6.9656
23.915	7.32777	23.915	7.09236
23.92	7.42281	23.92	7.18732
23.925	7.49401	23.925	7.25843
23.93	7.54733	23.93	7.31165
23.935	7.58724	23.935	7.35146
23.94	7.6171	23.94	7.38121
23.945	7.63941	23.945	7.40342
23.95	7.65606	23.95	7.41996
23.955	7.66847	23.955	7.43226
23.96	7.6777	23.96	7.44138
23.965	7.68454	23.965	7.44811
23.97	8.07654	23.97	7.0661
23.975	7.9886	23.975	7.16135
23.98	7.92256	23.98	7.23269
23.985	7.87295	23.985	7.28607
23.99	9.11411	23.99	9.37835
23.995	9.16285	23.995	8.52777
24	8.81747	24	8.2716
24.005	8.55838	24.005	8.07939
24.01	8.364	24.01	7.93515
24.015	8.21815	24.015	7.82687
24.02	8.10871	24.02	7.74558
24.025	8.02657	24.025	7.68452
24.03	7.9649	24.03	7.63863
24.035	7.91859	24.035	7.60413
24.04	7.8838	24.04	7.57817
24.045	7.85764	24.045	7.5586
24.05	7.83796	24.05	7.54384
24.055	7.82315	24.055	7.53268
24.06	7.81197	24.06	7.52422
24.065	7.80353	24.065	7.51779
24.07	7.79714	24.07	7.51288
24.075	7.79229	24.075	7.5091
24.08	7.78859	24.08	7.50618
24.085	7.78575	24.085	7.5039
24.09	7.78357	24.09	7.50211
24.095	8.16881	24.095	7.11372
24.1	8.07582	24.1	7.20421
24.105	8.00602	24.105	7.27199
24.11	7.95361	24.11	7.32273
24.115	7.91424	24.115	7.3607
24.12	7.88465	24.12	7.38909
24.125	7.8624	24.125	7.41029
24.13	7.84565	24.13	7.4261
24.135	7.83303	24.135	7.43787
24.14	7.8235	24.14	7.44661
24.145	7.8163	24.145	7.45308
24.15	7.81084	24.15	7.45784
24.155	7.80668	24.155	7.46132
24.16	7.8035	24.16	7.46384
24.165	7.80105	24.165	7.46564
24.17	7.79916	24.17	7.4669
24.175	7.79768	24.175	7.46776
24.18	7.79651	24.18	7.46832
24.185	7.79557	24.185	7.46864
24.19	8.18176	24.19	7.08185
24.195	8.08947	24.195	7.17354
24.2	8.02019	24.2	7.24221
24.205	7.96817	24.205	7.29363
24.21	7.9291	24.21	7.3321
24.215	7.89974	24.215	7.36087
24.22	7.87765	24.22	7.38235
24.225	7.86103	24.225	7.39838
24.23	7.8485	24.23	7.41031
24.235	7.83904	24.235	7.41917
24.24	7.83189	24.24	7.42572
24.245	7.82647	24.245	7.43055
24.25	7.82234	24.25	7.43408
24.255	7.81918	24.255	7.43664
24.26	7.81676	24.26	7.43847
24.265	7.81487	24.265	7.43976
24.27	7.8134	24.27	7.44063
24.275	7.81224	24.275	7.4412
24.28	8.19825	24.28	7.05459
24.285	8.10584	24.285	7.1464
24.29	8.03647	24.29	7.21518
24.295	7.98438	24.295	7.26667
24.3	7.94525	24.3	7.3052
24.305	7.91585	24.305	7.33401
24.31	7.89373	24.31	7.35553
24.315	7.87709	24.315	7.37158
24.32	7.86454	24.32	7.38352
24.325	7.85507	24.325	7.3924
24.33	7.84791	24.33	7.39896
24.335	7.84248	24.335	7.4038
24.34	7.83835	24.34	7.40733
24.345	7.83519	24.345	7.4099
24.35	7.83276	24.35	7.41173
24.355	7.83087	24.355	7.41302
24.36	7.8294	24.36	7.41389
24.365	7.82824	24.365	7.41446
24.37	7.8273	24.37	7.4148
24.375	7.82654	24.375	7.41496
24.38	7.20043	24.38	8.04048
24.385	7.97954	24.385	7.26077
24.39	7.31506	24.39	7.92466
24.395	8.06539	24.395	7.17373
24.4	8.0048	24.4	7.23372
24.405	7.33382	24.405	7.9041
24.41	7.4538	24.41	7.78353
24.415	9.20912	24.415	9.35841
24.42	8.87467	24.42	8.8886
24.425	9.24928	24.425	7.9107
24.43	8.90692	24.43	7.80048
24.435	8.02462	24.435	8.34322
24.44	7.98614	24.44	8.12694
24.445	8.58271	24.445	7.33918
24.45	7.78134	24.45	7.99704
24.455	7.80355	24.455	7.86709
24.46	8.44564	24.46	7.14408
24.465	8.3039	24.465	7.22503
24.47	7.57207	24.47	7.91115
24.475	7.64643	24.475	7.8024
24.48	8.32764	24.48	7.09529
24.485	7.58975	24.485	7.81364
24.49	8.28505	24.49	7.10358
24.495	8.1832	24.495	7.19423
24.5	7.4813	24.5	7.88764
24.505	8.20358	24.505	7.15887
24.51	8.12198	24.51	7.2355
24.515	7.43526	24.515	7.91838
24.52	7.54345	24.52	7.8072
24.525	8.25003	24.525	7.09826
24.53	8.15665	24.53	7.18976
24.535	7.4611	24.535	7.8838
24.54	7.56266	24.54	7.78098
24.545	7.63879	24.545	7.70381
24.55	7.69585	24.55	7.64585
24.555	7.7386	24.555	7.60232
24.56	7.77062	24.56	7.5696
24.565	7.79459	24.565	7.54499
24.57	7.81253	24.57	7.52647
24.575	7.82594	24.575	7.5125
24.58	7.83596	24.58	7.50196
24.585	7.84343	24.585	7.49399
24.59	7.84899	24.59	7.48794
24.595	7.85312	24.595	7.48333
24.6	7.85617	24.6	7.47981
24.605	7.85842	24.605	7.4771
24.61	7.86007	24.61	7.475
24.615	7.86126	24.615	7.47335
24.62	7.86211	24.62	7.47205
24.625	7.86271	24.625	7.471
24.63	7.86311	24.63	7.47015
24.635	7.86337	24.635	7.46944
24.64	7.86353	24.64	7.46884
24.645	7.8636	24.645	7.46832
24.65	7.86362	24.65	7.46786
24.655	7.86359	24.655	7.46745
24.66	7.86352	24.66	7.46707
24.665	7.86343	24.665	7.46672
24.67	7.86332	24.67	7.46639
24.675	7.86319	24.675	7.46607
24.68	7.86306	24.68	7.46576
24.685	7.86291	24.685	7.46546
24.69	7.86276	24.69	7.46517
24.695	7.86261	24.695	7.46488
24.7	7.47551	24.7	7.85154
24.705	7.95395	24.705	7.37265
24.71	7.93087	24.71	7.39529
24.715	7.91352	24.715	7.41219
24.72	7.90047	24.72	7.4248
24.725	7.89064	24.725	7.43419
24.73	7.88322	24.73	7.44116
24.735	7.87762	24.735	7.44633
24.74	7.87337	24.74	7.45013
24.745	7.87015	24.745	7.45291
24.75	7.86768	24.75	7.45493
24.755	7.8658	24.755	7.45637
24.76	7.86434	24.76	7.45739
24.765	7.8632	24.765	7.45808
24.77	7.86231	24.77	7.45853
24.775	7.8616	24.775	7.4588
24.78	7.47407	24.78	7.84588
24.785	7.56526	24.785	7.75425
24.79	7.6336	24.79	7.68547
24.795	7.68482	24.795	7.63381
24.8	7.72319	24.8	7.59499
24.805	7.75192	24.805	7.56582
24.81	7.77343	24.81	7.54386
24.815	7.78952	24.815	7.52733
24.82	7.80155	24.82	7.51486
24.825	8.19747	24.825	7.11849
24.83	8.11251	24.83	7.20301
24.835	8.04874	24.835	7.26634
24.84	8.00088	24.84	7.31376
24.845	7.57799	24.845	7.7362
24.85	7.64265	24.85	7.6711
24.855	7.6911	24.855	7.62221
24.86	7.72739	24.86	7.58547
24.865	7.75457	24.865	7.55785
24.87	7.77492	24.87	7.53706
24.875	7.79013	24.875	7.5214
24.88	7.8015	24.88	7.50959
24.885	7.80999	24.885	7.50066
24.89	7.81631	24.89	7.4939
24.895	7.82101	24.895	7.48875
24.9	7.82449	24.9	7.48483
24.905	7.82706	24.905	7.48181
24.91	7.82895	24.91	7.47949
24.915	7.83032	24.915	7.47767
24.92	7.83131	24.92	7.47624
24.925	7.832	24.925	7.4751
24.93	7.83249	24.93	7.47417
24.935	7.83281	24.935	7.47341
24.94	7.833	24.94	7.47277
24.945	7.83311	24.945	7.47222
24.95	7.83315	24.95	7.47174
24.955	7.83313	24.955	7.47131
24.96	7.83308	24.96	7.47092
24.965	7.833	24.965	7.47056
24.97	7.8329	24.97	7.47022
24.975	7.83278	24.975	7.46989
24.98	7.83265	24.98	7.46958
24.985	7.83251	24.985	7.46928
24.99	7.83236	24.99	7.46898
24.995	7.83221	24.995	7.46869
25	20.9814	25	20.6177
25.005	20.9987	25.005	20.6349
25.01	21.0159	25.01	20.6521
25.015	21.0332	25.015	20.6692
25.02	21.0505	25.02	20.6864
25.025	21.0678	25.025	20.7036
25.03	21.0851	25.03	20.7208
25.035	19.437	25.035	19.0725
25.04	19.8561	25.04	19.4915
25.045	20.1747	25.045	19.8101
25.05	20.418	25.05	20.0532
25.055	20.6048	25.055	20.2399
25.06	20.7492	25.06	20.3842
25.065	21.4872	25.065	19.8711
25.07	21.4218	25.07	20.1139
25.075	21.377	25.075	20.3003
25.08	21.3478	25.08	20.4444
25.085	19.6647	25.085	18.8913
25.09	20.0576	25.09	19.3816
25.095	20.3566	25.095	19.7536
25.1	20.5851	25.1	20.0369
25.105	19.0953	25.105	18.5882
25.11	20.2587	25.11	18.5313
25.115	20.5122	25.115	19.1162
25.12	19.0411	25.12	17.8936
25.125	19.593	25.125	18.6319
25.13	18.3458	25.13	17.5243
25.135	19.0655	25.135	18.3488
25.14	18.9565	25.14	16.2935
25.145	19.5247	25.145	17.4122
25.15	17.6642	25.15	17.2156
25.155	18.1328	25.155	15.1835
25.16	17.6418	25.16	17.8119
25.165	18.1098	25.165	15.6245
25.17	17.2039	25.17	15.2201
25.175	16.2756	25.175	15.1449
25.18	15.3959	25.18	11.9204
25.185	15.9315	25.185	14.9183
25.19	12.8312	25.19	10.6845
25.195	14.1864	25.195	10.4112
25.2	15.4656	25.2	13.2532
25.205	14.1056	25.205	11.0505
25.21	15.9165	25.21	13.1791
25.215	15.3244	25.215	13.4029
25.22	10.7878	25.22	7.64964
25.225	12.9906	25.225	10.9444
25.23	9.47737	25.23	5.26526
25.235	11.5778	25.235	9.48528
25.24	12.7402	25.24	9.73991
25.245	5.038	25.245	1.82944
25.25	7.12309	25.25	4.52204
25.255	3.67986	25.255	1.53439
25.26	6.03917	25.26	4.23535
25.265	7.79769	25.265	6.25006
25.27	5.7748	25.27	4.41929
25.275	5.88299	25.275	4.67151
25.28	8.22943	25.28	5.87498
25.285	7.68949	25.285	5.72432
25.29	8.29882	25.29	7.87652
25.295	9.36793	25.295	8.8562
25.3	7.21474	25.3	5.86201
25.305	8.50855	25.305	7.28875
25.31	9.46765	25.31	8.34752
25.315	8.51031	25.315	7.46488
25.32	7.7665	25.32	6.77706
25.325	8.46123	25.325	8.28764
25.33	7.68739	25.33	7.36191
25.335	8.7465	25.335	8.30707
25.34	9.52941	25.34	9.00447
25.345	6.77436	25.345	6.18525
25.35	7.99836	25.35	7.36108
25.355	8.90484	25.355	8.23139
25.36	5.85542	25.36	5.9287
25.365	7.24042	25.365	7.10997
25.37	8.26755	25.37	7.98427
25.375	2.75162	25.375	1.57978
25.38	4.82466	25.38	3.75009
25.385	-1.0678	25.385	-0.521663
25.39	1.86832	25.39	2.10248
25.395	0.727754	25.395	0.727889
25.4	3.16219	25.4	2.98677
25.405	4.58914	25.405	5.0559
25.41	2.69846	25.41	2.88309
25.415	3.94474	25.415	5.16869
25.42	5.49068	25.42	6.24754
25.425	2.02884	25.425	1.66145
25.43	3.99114	25.43	3.54426
25.435	5.45072	25.435	4.94417
25.44	4.24235	25.44	4.94198
25.445	3.93263	25.445	4.29031
25.45	5.33899	25.45	5.44017
25.455	2.66375	25.455	3.34642
25.46	4.32864	25.46	4.68366
25.465	7.23037	25.465	7.3396
25.47	6.07803	25.47	6.00289
25.475	6.85228	25.475	6.63883
25.48	7.18204	25.48	7.34189
25.485	4.71449	25.485	3.89757
25.49	5.77127	25.49	4.98547
25.495	6.93831	25.495	5.40192
25.5	4.08841	25.5	2.75277
25.505	6.28011	25.505	6.34596
25.51	6.88369	25.51	6.75408
25.515	2.32758	25.515	2.05136
25.52	3.85052	25.52	3.46428
25.525	6.64542	25.525	6.17665
25.53	5.41261	25.53	4.88192
25.535	6.51312	25.535	5.16205
25.54	5.03996	25.54	4.31437
25.545	6.20154	25.545	4.68833
25.55	3.73421	25.55	1.62008
25.555	4.79077	25.555	2.98965
25.56	7.2357	25.56	5.66932
25.565	5.50169	25.565	4.58839
25.57	6.08056	25.57	5.17423
25.575	6.50177	25.575	5.60064
25.58	7.19166	25.58	5.52051
25.585	7.31423	25.585	5.82927
25.59	7.78011	25.59	5.66086
25.595	7.4961	25.595	6.14191
25.6	6.23301	25.6	4.19587
25.605	8.59398	25.605	6.03445
25.61	8.31888	25.61	6.13126
25.615	8.09945	25.615	6.19073
25.62	7.92176	25.62	6.2222
25.625	9.44076	25.625	7.89803
25.63	7.63753	25.63	5.43851
25.635	9.20636	25.635	7.27882
25.64	8.71891	25.64	6.99496
25.645	8.48855	25.645	6.62043
25.65	8.1621	25.65	6.46676
25.655	9.95638	25.655	7.61669
25.66	7.97765	25.66	5.14452
25.665	9.41476	25.665	6.97525
25.67	10.4938	25.67	8.3495
25.675	9.63895	25.675	7.716
25.68	8.98451	25.68	7.22757
25.685	10.5327	25.685	8.12635
25.69	11.3132	25.69	9.18348
25.695	10.2344	25.695	8.3121
25.7	11.0773	25.7	9.3106
25.705	10.4322	25.705	8.00829
25.71	11.2186	25.71	9.06545
25.715	11.8096	25.715	9.85945
25.72	10.9755	25.72	8.40373
25.725	9.95467	25.725	7.68042
25.73	10.8411	25.73	8.78993
25.735	9.45467	25.735	8.3447
25.74	10.4487	25.74	9.28088
25.745	9.52995	25.745	8.31869
25.75	10.4929	25.75	9.249
25.755	9.55071	25.755	8.28238
25.76	11.1215	25.76	8.58387
25.765	10.012	25.765	7.7689
25.77	10.8319	25.77	8.80958
25.775	9.39543	25.775	8.31266
25.78	10.3519	25.78	9.20999
25.785	9.40486	25.785	8.21858
25.79	9.95953	25.79	9.51385
25.795	8.70607	25.795	8.82596
25.8	10.4252	25.8	8.95455
25.805	10.7053	25.805	10.0622
25.81	9.63284	25.81	8.84657
25.815	10.0934	25.815	9.97366
25.82	8.76931	25.82	9.15959
25.825	9.42301	25.825	10.2059
25.83	8.24375	25.83	9.3313
25.835	9.39299	25.835	9.94525
25.84	10.4944	25.84	10.1681
25.845	10.693	25.845	10.9644
25.85	9.55937	25.85	9.51536
25.855	9.974	25.855	10.4673
25.86	10.2808	25.86	11.1872
25.865	9.22828	25.865	9.68069
25.87	9.31678	25.87	10.9765
25.875	9.10786	25.875	8.89459
25.88	9.59271	25.88	9.99512
25.885	9.95215	25.885	10.8264
25.89	10.6045	25.89	11.0689
25.895	9.04223	25.895	9.97314
25.9	9.51721	25.9	10.8081
25.905	9.86923	25.905	11.4402
25.91	10.516	25.91	11.5333
25.915	9.575	25.915	9.69998
25.92	9.89265	25.92	10.605
25.925	10.5136	25.925	10.9028
25.93	8.54084	25.93	10.2354
25.935	9.47672	25.935	10.6228
25.94	8.75258	25.94	9.01015
25.945	9.23281	25.945	10.0807
25.95	9.97565	25.95	10.5025
25.955	8.48123	25.955	9.54118
25.96	9.00701	25.96	10.4769
25.965	8.35713	25.965	8.89364
25.97	9.27996	25.97	9.59921
25.975	9.5859	25.975	10.5161
25.98	8.53258	25.98	9.15716
25.985	9.00728	25.985	10.1765
25.99	9.74591	25.99	10.5599
25.995	8.87376	25.995	8.94418
26	9.62986	26	9.62538
26.005	10.1977	26.005	10.137
26.01	8.57189	26.01	9.24289
26.015	9.38602	26.015	9.84202
26.02	9.99732	26.02	10.292
26.025	8.79111	26.025	8.96482
26.03	9.77656	26.03	9.3824
26.035	8.60953	26.035	8.27225
26.04	9.38582	26.04	9.09115
26.045	9.58175	26.045	10.0929
26.05	8.44584	26.05	8.79756
26.055	9.24544	26.055	9.47757
26.06	10.4713	26.06	9.36269
26.065	9.10263	26.065	8.23502
26.07	9.72766	26.07	9.04074
26.075	10.1971	26.075	9.64562
26.08	8.88436	26.08	8.43446
26.085	9.55133	26.085	9.17756
26.09	8.38677	26.09	8.07005
26.095	9.16483	26.095	8.89085
26.1	10.3745	26.1	8.88152
26.105	8.99359	26.105	7.83295
26.11	9.60941	26.11	8.69794
26.115	10.0718	26.115	9.34721
26.12	8.75385	26.12	8.16929
26.125	9.4168	26.125	8.93725
26.13	9.91456	26.13	9.51373
26.135	10.2884	26.135	9.94659
26.14	9.52948	26.14	7.98087
26.145	9.98842	26.145	8.78123
26.15	10.3332	26.15	9.38199
26.155	8.92686	26.155	8.16765
26.16	9.52354	26.16	8.90826
26.165	9.97156	26.165	9.46418
26.17	10.3081	26.17	9.88159
26.175	10.561	26.175	10.1951
26.18	11.1382	26.18	10.0438
26.185	9.13734	26.185	9.03417
26.19	10.0569	26.19	9.15949
26.195	8.69984	26.195	7.97039
26.2	9.95888	26.2	8.10441
26.205	10.2804	26.205	8.82863
26.21	10.522	26.21	9.37222
26.215	10.7036	26.215	9.78035
26.22	9.17497	26.22	8.42147
26.225	9.67983	26.225	9.05362
26.23	10.0589	26.23	9.52813
26.235	10.3437	26.235	9.88443
26.24	8.89236	26.24	8.48667
26.245	9.45519	26.245	9.08963
26.25	9.87774	26.25	9.54224
26.255	10.1951	26.255	9.88209
26.26	10.4336	26.26	10.1374
26.265	10.6128	26.265	10.3292
26.27	11.3732	26.27	9.84802
26.275	9.26834	26.275	8.83232
26.28	9.72286	26.28	9.33995
26.285	10.0642	26.285	9.72105
26.29	10.3206	26.29	10.0072
26.295	8.8479	26.295	8.55685
26.3	9.39469	26.3	9.12031
26.305	9.80519	26.305	9.54325
26.31	10.1135	26.31	9.86081
26.315	10.3451	26.315	10.0993
26.32	10.1322	26.32	10.6655
26.325	10.3549	26.325	10.7086
26.33	8.85687	26.33	9.07595
26.335	9.38464	26.335	9.50265
26.34	10.4063	26.34	9.19752
26.345	10.5497	26.345	9.59228
26.35	10.6576	26.35	9.88869
26.355	8.6866	26.355	8.83287
26.36	9.24146	26.36	9.31034
26.365	9.65797	26.365	9.66876
26.37	9.97072	26.37	9.93789
26.375	8.54025	26.375	8.47465
26.38	8.73169	26.38	9.41535
26.385	9.25749	26.385	9.73931
26.39	9.65218	26.39	9.98256
26.395	9.94854	26.395	10.1653
26.4	10.1712	26.4	10.3026
26.405	8.67307	26.405	8.74055
26.41	8.81378	26.41	9.60709
26.415	9.30151	26.415	9.87541
26.42	10.2931	26.42	9.45144
26.425	10.4139	26.425	9.757
26.43	10.5048	26.43	9.98645
26.435	10.5733	26.435	10.1588
26.44	8.95957	26.44	8.62295
26.445	9.4005	26.445	9.12221
26.45	9.34456	26.45	9.88385
26.455	9.68478	26.455	10.0735
26.46	9.94026	26.46	10.2159
26.465	10.1322	26.465	10.323
26.47	10.2764	26.47	10.4036
26.475	10.3849	26.475	10.4643
26.48	8.80119	26.48	8.84469
26.485	9.26458	26.485	9.28109
26.49	9.61242	26.49	9.60863
26.495	9.87359	26.495	9.85452
26.5	10.0698	26.5	10.0392
26.505	10.2172	26.505	10.1779
26.51	10.328	26.51	10.2822
26.515	10.4114	26.515	10.3606
26.52	10.4743	26.52	10.4197
26.525	8.85634	26.525	8.79882
26.53	9.29403	26.53	9.23428
26.535	9.23563	26.535	9.94803
26.54	9.57396	26.54	10.1017
26.545	9.82798	26.545	10.2172
26.55	10.0188	26.55	10.304
26.555	10.1621	26.555	10.3693
26.56	8.60451	26.56	8.75312
26.565	9.08745	26.565	9.19207
26.57	9.44991	26.57	9.52148
26.575	9.722	26.575	9.76873
26.58	9.92632	26.58	9.95436
26.585	10.0798	26.585	10.0938
26.59	10.5821	26.59	9.8116
26.595	10.5773	26.595	9.98202
26.6	10.5739	26.6	10.11
26.605	8.90616	26.605	8.54084
26.61	9.30651	26.61	9.01502
26.615	9.607	26.615	9.37083
26.62	9.83261	26.62	9.63786
26.625	10.002	26.625	9.83831
26.63	10.1294	26.63	9.98883
26.635	10.2251	26.635	10.1019
26.64	10.2971	26.64	10.1869
26.645	10.7383	26.645	9.86383
26.65	10.6875	26.65	10.0036
26.655	8.98432	26.655	8.44319
26.66	9.35801	26.66	8.92394
26.665	9.63849	26.665	9.28467
26.67	10.236	26.67	9.16842
26.675	10.3025	26.675	9.46326
26.68	10.3526	26.68	9.68454
26.685	10.3904	26.685	9.85066
26.69	10.4189	26.69	9.97541
26.695	8.77512	26.695	8.40373
26.7	9.19338	26.7	8.87601
26.705	9.50726	26.705	9.23035
26.71	10.1298	26.71	9.1093
26.715	10.2151	26.715	9.40051
26.72	10.2792	26.72	9.61906
26.725	10.3275	26.725	9.78311
26.73	10.3639	26.73	9.90629
26.735	10.3914	26.735	9.99881
26.74	10.4122	26.74	10.0683
26.745	10.815	26.745	9.73368
26.75	10.7354	26.75	9.86469
26.755	10.6759	26.755	9.96308
26.76	8.96602	26.76	8.37162
26.765	9.33471	26.765	8.82903
26.77	9.6114	26.77	9.17221
26.775	9.8191	26.775	9.42972
26.78	9.97505	26.78	9.62297
26.785	10.0922	26.785	9.76802
26.79	10.1802	26.79	9.87693
26.795	10.2464	26.795	9.95873
26.8	10.2962	26.8	10.0202
26.805	10.3338	26.805	10.0664
26.81	10.3621	26.81	10.1012
26.815	10.3835	26.815	10.1274
26.82	10.7867	26.82	9.76025
26.825	10.7074	26.825	9.86686
26.83	10.6481	26.83	9.94693
26.835	9.97832	26.835	10.6326
26.84	10.0994	26.84	10.5237
26.845	8.52504	26.845	8.77671
26.85	8.9953	26.85	9.11749
26.855	8.9612	26.855	9.76012
26.86	9.31764	26.86	9.86032
26.865	9.58513	26.865	9.93558
26.87	9.7859	26.87	9.99212
26.875	10.3236	26.875	9.64768
26.88	10.3451	26.88	9.77132
26.885	10.3614	26.885	9.86415
26.89	10.3738	26.89	9.93387
26.895	10.3833	26.895	9.98627
26.9	10.3905	26.9	10.0257
26.905	10.3961	26.905	10.0553
26.91	10.4005	26.91	10.0776
26.915	10.4039	26.915	10.0945
26.92	10.4066	26.92	10.1072
26.925	10.4088	26.925	10.1169
26.93	10.4106	26.93	10.1242
26.935	10.4121	26.935	10.1299
26.94	8.74796	26.94	8.46876
26.945	8.76395	26.945	9.26087
26.95	9.5449	26.95	9.08622
26.955	9.74888	26.955	9.33717
26.96	8.88957	26.96	10.5379
26.965	9.63731	26.965	10.0464
26.97	9.81638	26.97	10.0598
26.975	9.95082	26.975	10.0699
26.98	10.0518	26.98	10.0776
26.985	10.1276	26.985	10.0834
26.99	10.1847	26.99	10.0878
26.995	10.2276	26.995	10.0913
27	10.2599	27	10.0939
27.005	10.2843	27.005	10.096
27.01	10.3027	27.01	10.0976
27.015	10.3166	27.015	10.0989
27.02	10.3272	27.02	10.1
27.025	10.3353	27.025	10.1009
27.03	10.3415	27.03	10.1016
27.035	10.3463	27.035	10.1023
27.04	10.35	27.04	10.1028
27.045	10.3529	27.045	10.1033
27.05	10.3552	27.05	10.1038
27.055	10.3571	27.055	10.1042
27.06	10.3587	27.06	10.1046
27.065	9.73446	27.065	10.7305
27.07	9.88973	27.07	10.5767
27.075	10.0063	27.075	10.4614
27.08	10.0939	27.08	10.3751
27.085	10.1597	27.085	10.3104
27.09	10.2092	27.09	10.262
27.095	8.58104	27.095	8.56032
27.1	9.39789	27.1	8.54811
27.105	9.62877	27.105	8.92087
27.11	9.80205	27.11	9.20051
27.115	9.93212	27.115	9.41031
27.12	10.0298	27.12	9.56772
27.125	10.1032	27.125	9.68584
27.13	10.1583	27.13	9.7745
27.135	10.1998	27.135	9.84106
27.14	9.6055	27.14	10.5165
27.145	9.78319	27.145	10.3999
27.15	9.91656	27.15	10.3125
27.155	10.4037	27.155	9.86009
27.16	10.3872	27.16	9.9027
27.165	10.375	27.165	9.93473
27.17	10.366	27.17	9.95881
27.175	10.3593	27.175	9.97694
27.18	10.3544	27.18	9.9906
27.185	10.3509	27.185	10.0009
27.19	10.3483	27.19	10.0087
27.195	10.7335	27.195	9.62768
27.2	10.6406	27.2	9.72384
27.205	10.571	27.205	9.79602
27.21	10.519	27.21	9.85023
27.215	10.48	27.215	9.89094
27.22	9.82547	27.22	10.547
27.225	10.3449	27.225	10.0289
27.23	10.3527	27.23	10.0223
27.235	10.3587	27.235	10.0174
27.24	10.3632	27.24	10.0138
27.245	10.3668	27.245	10.0111
27.25	9.09112	27.25	7.95687
27.255	9.40348	27.255	8.44898
27.26	9.63785	27.26	8.81811
27.265	9.81372	27.265	9.09501
27.27	9.94572	27.27	9.30272
27.275	10.0448	27.275	9.45856
27.28	10.1192	27.28	9.57548
27.285	10.5621	27.285	9.27628
27.29	10.5124	27.29	9.43379
27.295	9.84981	27.295	10.1774
27.3	9.97622	27.3	10.112
27.305	10.0711	27.305	10.0629
27.31	10.1424	27.31	10.0262
27.315	10.5829	27.315	9.61169
27.32	10.5315	27.32	9.68276
27.325	10.493	27.325	9.73611
27.33	10.4642	27.33	9.77617
27.335	10.4428	27.335	9.80627
27.34	10.4268	27.34	9.82889
27.345	10.4148	27.345	9.8459
27.35	10.406	27.35	9.85871
27.355	10.3994	27.355	9.86836
27.36	10.3946	27.36	9.87565
27.365	10.7781	27.365	9.49422
27.37	10.6839	27.37	9.59006
27.375	10.6133	27.375	9.66198
27.38	9.93499	27.38	10.3415
27.385	10.0496	27.385	10.2278
27.39	10.1357	27.39	10.1427
27.395	10.5873	27.395	9.69191
27.4	10.5442	27.4	9.73574
27.405	10.512	27.405	9.76867
27.41	10.4879	27.41	9.79342
27.415	10.4699	27.415	9.81202
27.42	10.4566	27.42	9.82603
27.425	10.4466	27.425	9.83658
27.43	10.4392	27.43	9.84455
27.435	10.4338	27.435	9.85057
27.44	10.4298	27.44	9.85513
27.445	10.4269	27.445	9.85861
27.45	10.8118	27.45	9.47431
27.455	10.7187	27.455	9.56801
27.46	10.6489	27.46	9.63833
27.465	10.5967	27.465	9.69112
27.47	10.5576	27.47	9.73076
27.475	10.5284	27.475	9.76054
27.48	9.8811	27.48	10.4084
27.485	10.019	27.485	10.2711
27.49	10.1225	27.49	10.1681
27.495	10.2002	27.495	10.091
27.5	10.2586	27.5	10.0332
27.505	8.63708	27.505	8.32446
27.51	9.0719	27.51	8.69385
27.515	9.39809	27.515	8.97092
27.52	9.6428	27.52	9.17876
27.525	9.82641	27.525	9.33467
27.53	9.96418	27.53	9.45163
27.535	10.0676	27.535	9.53939
27.54	10.1452	27.54	9.60523
27.545	10.2035	27.545	9.65465
27.55	10.2473	27.55	9.69174
27.555	10.2802	27.555	9.71959
27.56	10.305	27.56	9.74051
27.565	10.3236	27.565	9.75623
27.57	10.3376	27.57	9.76805
27.575	10.3483	27.575	9.77695
27.58	10.3563	27.58	9.78365
27.585	10.3624	27.585	9.78871
27.59	10.367	27.59	9.79253
27.595	10.3706	27.595	9.79543
27.6	10.3733	27.6	9.79764
27.605	10.3754	27.605	9.79932
27.61	10.3771	27.61	9.80062
27.615	10.3784	27.615	9.80162
27.62	10.3795	27.62	9.8024
27.625	10.3803	27.625	9.80302
27.63	10.381	27.63	9.80352
27.635	9.99471	27.635	10.1909
27.64	9.84837	27.64	10.3381
27.645	9.59313	27.645	10.5941
27.65	9.78365	27.65	10.4042
27.655	9.9266	27.655	10.2619
27.66	10.0339	27.66	10.1551
27.665	10.1144	27.665	10.0751
27.67	10.1749	27.67	10.0151
27.675	10.2203	27.675	9.97016
27.68	10.2545	27.68	9.93648
27.685	10.2801	27.685	9.91125
27.69	10.2995	27.69	9.89236
27.695	10.314	27.695	9.87822
27.7	10.325	27.7	9.86765
27.705	10.3333	27.705	9.85975
27.71	10.3396	27.71	9.85386
27.715	10.3444	27.715	9.84948
27.72	10.3481	27.72	9.84622
27.725	10.3509	27.725	9.84381
27.73	10.3531	27.73	9.84204
27.735	10.3548	27.735	9.84073
27.74	10.3562	27.74	9.83979
27.745	10.3573	27.745	9.83912
27.75	10.3582	27.75	9.83864
27.755	10.3589	27.755	9.83832
27.76	10.3595	27.76	9.83811
27.765	10.36	27.765	9.83798
27.77	10.3605	27.77	9.83792
27.775	10.3609	27.775	9.8379
27.78	10.3613	27.78	9.83792
27.785	10.3617	27.785	9.83797
27.79	10.362	27.79	9.83804
27.795	10.3624	27.795	9.83812
27.8	10.3627	27.8	9.83821
27.805	10.363	27.805	9.83832
27.81	10.3633	27.81	9.83843
27.815	10.3636	27.815	9.83854
27.82	9.97693	27.82	10.2256
27.825	10.0689	27.825	10.1341
27.83	10.1379	27.83	10.0654
27.835	10.1897	27.835	10.014
27.84	10.2287	27.84	9.97547
27.845	10.258	27.845	9.9466
27.85	10.28	27.85	9.92497
27.855	10.2966	27.855	9.90879
27.86	10.3091	27.86	9.89668
27.865	10.3186	27.865	9.88763
27.87	10.3257	27.87	9.88087
27.875	10.3312	27.875	9.87584
27.88	10.3353	27.88	9.8721
27.885	10.3385	27.885	9.86932
27.89	10.341	27.89	9.86727
27.895	10.3429	27.895	9.86577
27.9	10.3444	27.9	9.86467
27.905	9.95866	27.905	10.2508
27.91	10.4382	27.91	9.77166
27.915	8.75072	27.915	8.12879
27.92	8.74908	27.92	8.93449
27.925	9.51672	27.925	8.76996
27.93	9.32368	27.93	9.41539
27.935	9.56082	27.935	9.51761
27.94	9.73873	27.94	9.59429
27.945	9.87221	27.945	9.65181
27.95	9.97237	27.95	9.69497
27.955	10.0475	27.955	9.72735
27.96	10.104	27.96	9.75164
27.965	10.1463	27.965	9.76988
27.97	10.1782	27.97	9.78357
27.975	10.2021	27.975	9.79385
27.98	10.2201	27.98	9.80157
27.985	10.2336	27.985	9.80737
27.99	10.2439	27.99	9.81174
27.995	10.2516	27.995	9.81503
28	10.2574	28	9.81751
28.005	10.2618	28.005	9.81938
28.01	10.2652	28.01	9.82079
28.015	10.2678	28.015	9.82187
28.02	9.88282	28.02	10.2096
28.025	9.97601	28.025	10.1186
28.03	10.046	28.03	10.0503
28.035	10.0985	28.035	9.99917
28.04	10.1379	28.04	9.96079
28.045	10.1675	28.045	9.93203
28.05	10.1898	28.05	9.91046
28.055	10.2066	28.055	9.89431
28.06	10.2192	28.06	9.8822
28.065	10.2287	28.065	9.87313
28.07	10.2359	28.07	9.86634
28.075	10.2413	28.075	9.86127
28.08	10.2455	28.08	9.85747
28.085	10.8741	28.085	9.22916
28.09	10.7223	28.09	9.3812
28.095	10.2216	28.095	9.8822
28.1	10.228	28.1	9.87609
28.105	10.2329	28.105	9.87152
28.11	10.2365	28.11	9.86811
28.115	10.2394	28.115	9.86556
28.12	10.2415	28.12	9.86366
28.125	10.2432	28.125	9.86225
28.13	10.2445	28.13	9.8612
28.135	10.2455	28.135	9.86042
28.14	10.2464	28.14	9.85986
28.145	10.247	28.145	9.85944
28.15	10.2476	28.15	9.85914
28.155	10.2481	28.155	9.85893
28.16	10.2485	28.16	9.85878
28.165	9.86188	28.165	10.2456
28.17	9.95386	28.17	10.1539
28.175	10.0229	28.175	10.0851
28.18	10.0747	28.18	10.0336
28.185	10.1136	28.185	9.9949
28.19	10.1429	28.19	9.96591
28.195	10.1649	28.195	9.94418
28.2	10.1814	28.2	9.9279
28.205	10.1939	28.205	9.91569
28.21	10.2033	28.21	9.90655
28.215	10.2104	28.215	9.89971
28.22	9.82879	28.22	10.2815
28.225	9.92453	28.225	10.1861
28.23	9.99638	28.23	10.1145
28.235	10.0503	28.235	10.0608
28.24	10.0908	28.24	10.0205
28.245	11.7867	28.245	11.6557
28.25	11.4077	28.25	11.2313
28.255	11.1236	28.255	10.913
28.26	10.9105	28.26	10.6743
28.265	10.7508	28.265	10.4953
28.27	10.6311	28.27	10.3611
28.275	10.5414	28.275	10.2604
28.28	10.4742	28.28	10.185
28.285	10.4239	28.285	10.1284
28.29	10.3862	28.29	10.0861
28.295	9.97107	28.295	10.4413
28.3	10.0417	28.3	10.3258
28.305	10.0947	28.305	10.2393
28.31	10.76	28.31	9.54891
28.315	10.6358	28.315	9.65444
28.32	10.5427	28.32	9.73362
28.325	10.4729	28.325	9.79303
28.33	10.4207	28.33	9.83762
28.335	10.3816	28.335	9.8711
28.34	10.3523	28.34	9.89623
28.345	10.3304	28.345	9.91511
28.35	10.3141	28.35	9.9293
28.355	10.3019	28.355	9.93997
28.36	10.2929	28.36	9.94801
28.365	10.2862	28.365	9.95407
28.37	10.2812	28.37	9.95864
28.375	9.89058	28.375	10.349
28.38	9.97957	28.38	10.26
28.385	10.4333	28.385	9.80632
28.39	10.0049	28.39	10.2349
28.395	10.0655	28.395	10.1745
28.4	10.1111	28.4	10.1292
28.405	10.1453	28.405	10.0953
28.41	10.171	28.41	10.0699
28.415	10.1904	28.415	10.0509
28.42	10.205	28.42	10.0366
28.425	10.216	28.425	10.026
28.43	8.55899	28.43	8.3526
28.435	8.96715	28.435	8.74849
28.44	9.27332	28.44	9.04542
28.445	9.503	28.445	9.26812
28.45	9.67531	28.45	9.43516
28.455	9.8046	28.455	9.56045
28.46	9.90162	28.46	9.65443
28.465	9.97443	28.465	9.72493
28.47	10.0291	28.47	9.77781
28.475	10.0702	28.475	9.81748
28.48	10.101	28.48	9.84725
28.485	9.73723	28.485	10.2565
28.49	10.2333	28.49	9.79469
28.495	10.2235	28.495	9.83018
28.5	9.82927	28.5	10.2438
28.505	10.3025	28.505	9.78515
28.51	9.8886	28.51	10.21
28.515	10.3471	28.515	9.75985
28.52	9.92216	28.52	10.1911
28.525	9.9854	28.525	10.1326
28.53	10.0329	28.53	10.0888
28.535	10.0685	28.535	10.0559
28.54	10.0953	28.54	10.0313
28.545	10.1155	28.545	10.0128
28.55	10.1307	28.55	9.99899
28.555	10.1421	28.555	9.98862
28.56	10.1507	28.56	9.98086
28.565	10.1572	28.565	9.97504
28.57	10.1622	28.57	9.97069
28.575	10.1659	28.575	9.96744
28.58	10.1688	28.58	9.96502
28.585	10.171	28.585	9.96321
28.59	10.5597	28.59	9.57491
28.595	10.0824	28.595	10.0525
28.6	10.4933	28.6	9.64192
28.605	10.0328	28.605	10.1028
28.61	10.4562	28.61	9.67965
28.615	10.392	28.615	9.74416
28.62	10.3438	28.62	9.79256
28.625	10.3078	28.625	9.82887
28.63	10.2808	28.63	9.85612
28.635	10.2606	28.635	9.87656
28.64	10.2456	28.64	9.8919
28.645	10.2343	28.645	9.90342
28.65	10.2259	28.65	9.91207
28.655	10.2197	28.655	9.91857
28.66	10.215	28.66	9.92345
28.665	10.2116	28.665	9.92713
28.67	10.2091	28.67	9.92989
28.675	10.2073	28.675	9.93198
28.68	10.206	28.68	9.93355
28.685	10.205	28.685	9.93475
28.69	10.2044	28.69	9.93565
28.695	10.2039	28.695	9.93634
28.7	10.2037	28.7	9.93687
28.705	10.2035	28.705	9.93728
28.71	10.2035	28.71	9.93759
28.715	10.2035	28.715	9.93784
28.72	10.2035	28.72	9.93804
28.725	10.2036	28.725	9.9382
28.73	10.5907	28.73	9.55138
28.735	10.1122	28.735	10.0301
28.74	10.5223	28.74	9.62032
28.745	10.448	28.745	9.69487
28.75	10.0054	28.75	10.1377
28.755	10.4423	28.755	9.70109
28.76	10.3881	28.76	9.75548
28.765	10.3476	28.765	9.79628
28.77	10.3172	28.77	9.8269
28.775	10.2945	28.775	9.84987
28.78	10.2775	28.78	9.86711
28.785	10.2648	28.785	9.88005
28.79	10.2554	28.79	9.88976
28.795	10.2483	28.795	9.89706
28.8	10.2431	28.8	9.90255
28.805	10.2392	28.805	9.90667
28.81	10.2364	28.81	9.90977
28.815	10.2343	28.815	9.91211
28.82	10.2328	28.82	9.91388
28.825	10.2317	28.825	9.91521
28.83	10.231	28.83	9.91622
28.835	10.2305	28.835	9.91699
28.84	10.2301	28.84	9.91758
28.845	10.2299	28.845	9.91803
28.85	10.2298	28.85	9.91838
28.855	10.2298	28.855	9.91866
28.86	10.2299	28.86	9.91887
28.865	10.2299	28.865	9.91904
28.87	10.2301	28.87	9.91919
28.875	10.2302	28.875	9.9193
28.88	10.2304	28.88	9.9194
28.885	10.2305	28.885	9.91948
28.89	10.2307	28.89	9.91956
28.895	10.2309	28.895	9.91962
28.9	10.2311	28.9	9.91969
28.905	10.2313	28.905	9.91974
28.91	10.2315	28.91	9.91979
28.915	10.2317	28.915	9.91985
28.92	10.2319	28.92	9.91989
28.925	10.2321	28.925	9.91994
28.93	10.2323	28.93	9.91999
28.935	10.2325	28.935	9.92003
28.94	10.2327	28.94	9.92008
28.945	10.2329	28.945	9.92012
28.95	10.2332	28.95	9.92017
28.955	10.2334	28.955	9.92021
28.96	10.2336	28.96	9.92026
28.965	10.2338	28.965	9.9203
28.97	10.234	28.97	9.92034
28.975	10.2342	28.975	9.92039
28.98	10.2344	28.98	9.92043
28.985	10.2346	28.985	9.92048
28.99	10.2349	28.99	9.92052
28.995	10.2351	28.995	9.92056
29	9.84833	29	10.3076
29.005	9.9402	29.005	10.2159
29.01	10.0092	29.01	10.1472
29.015	10.0609	29.015	10.0957
29.02	10.0998	29.02	10.0571
29.025	9.50353	29.025	10.6536
29.03	10.3051	29.03	9.85228
29.035	9.65764	29.035	10.5
29.04	9.79534	29.04	10.3626
29.045	9.89867	29.045	10.2595
29.05	9.97622	29.05	10.1822
29.055	10.0344	29.055	10.1243
29.06	10.0781	29.06	10.0808
29.065	10.111	29.065	10.0482
29.07	10.1357	29.07	10.0238
29.075	10.1542	29.075	10.0055
29.08	10.1682	29.08	9.99178
29.085	10.1787	29.085	9.9815
29.09	10.1867	29.09	9.97381
29.095	10.5796	29.095	9.5811
29.1	10.1056	29.1	10.0554
29.105	10.132	29.105	10.0293
29.11	10.5388	29.11	9.62273
29.115	10.0751	29.115	10.0867
29.12	10.4962	29.12	9.66579
29.125	10.4303	29.125	9.73203
29.13	10.3808	29.13	9.78171
29.135	10.3438	29.135	9.81899
29.14	10.3161	29.14	9.84696
29.145	10.2953	29.145	9.86795
29.15	10.2799	29.15	9.8837
29.155	10.2683	29.155	9.89553
29.16	10.2597	29.16	9.90441
29.165	10.2532	29.165	9.91109
29.17	10.2485	29.17	9.9161
29.175	10.245	29.175	9.91988
29.18	10.2424	29.18	9.92272
29.185	10.2405	29.185	9.92486
29.19	10.2391	29.19	9.92648
29.195	10.2381	29.195	9.92771
29.2	10.2375	29.2	9.92864
29.205	10.237	29.205	9.92935
29.21	10.6237	29.21	9.54295
29.215	10.5319	29.215	9.63503
29.22	10.463	29.22	9.7041
29.225	10.4115	29.225	9.75591
29.23	10.3729	29.23	9.79478
29.235	10.344	29.235	9.82395
29.24	10.3223	29.24	9.84583
29.245	10.3062	29.245	9.86226
29.25	10.2941	29.25	9.87459
29.255	10.2851	29.255	9.88385
29.26	10.2784	29.26	9.89081
29.265	10.2734	29.265	9.89604
29.27	10.2697	29.27	9.89997
29.275	10.267	29.275	9.90293
29.28	10.265	29.28	9.90517
29.285	10.2636	29.285	9.90685
29.29	10.2626	29.29	9.90813
29.295	10.2619	29.295	9.9091
29.3	10.2614	29.3	9.90984
29.305	10.2611	29.305	9.91041
29.31	10.2609	29.31	9.91084
29.315	10.2608	29.315	9.91118
29.32	10.2608	29.32	9.91145
29.325	10.2608	29.325	9.91166
29.33	10.2609	29.33	9.91183
29.335	10.261	29.335	9.91197
29.34	10.2612	29.34	9.91209
29.345	10.2613	29.345	9.91219
29.35	10.2615	29.35	9.91227
29.355	10.2617	29.355	9.91235
29.36	10.2619	29.36	9.91242
29.365	10.2621	29.365	9.91248
29.37	10.2623	29.37	9.91254
29.375	10.2625	29.375	9.9126
29.38	10.2627	29.38	9.91265
29.385	10.2629	29.385	9.9127
29.39	10.2631	29.39	9.91276
29.395	9.87633	29.395	10.2998
29.4	10.3551	29.4	9.8212
29.405	9.32	29.405	10.8566
29.41	10.1743	29.41	10.0025
29.415	10.1918	29.415	9.98526
29.42	10.205	29.42	9.97233
29.425	9.5895	29.425	10.5881
29.43	9.75117	29.43	10.4267
29.435	9.87248	29.435	10.3057
29.44	9.96351	29.44	10.2149
29.445	10.0318	29.445	10.1468
29.45	10.0831	29.45	10.0958
29.455	10.1216	29.455	10.0575
29.46	10.1506	29.46	10.0288
29.465	10.1723	29.465	10.0073
29.47	10.1887	29.47	9.9912
29.475	10.201	29.475	9.97913
29.48	10.2103	29.48	9.97009
29.485	10.2174	29.485	9.96332
29.49	10.2227	29.49	9.95826
29.495	10.2267	29.495	9.95447
29.5	9.84286	29.5	10.3386
29.505	9.93688	29.505	10.2448
29.51	10.0074	29.51	10.1745
29.515	10.0604	29.515	10.1218
29.52	10.1002	29.52	10.0823
29.525	10.1301	29.525	10.0526
29.53	10.1526	29.53	10.0304
29.535	10.1695	29.535	10.0138
29.54	10.1822	29.54	10.0013
29.545	10.1918	29.545	9.99198
29.55	10.199	29.55	9.98498
29.555	10.2045	29.555	9.97975
29.56	10.2087	29.56	9.97584
29.565	10.2119	29.565	9.97292
29.57	10.2143	29.57	9.97074
29.575	10.2162	29.575	9.96912
29.58	10.2176	29.58	9.96792
29.585	10.2188	29.585	9.96703
29.59	10.2197	29.59	9.96638
29.595	10.2204	29.595	9.9659
29.6	10.221	29.6	9.96555
29.605	10.6085	29.605	9.57836
29.61	10.1303	29.61	10.0568
29.615	10.5405	29.615	9.64681
29.62	10.4664	29.62	9.72121
29.625	10.4108	29.625	9.77702
29.63	10.3692	29.63	9.81889
29.635	10.3381	29.635	9.8503
29.64	10.3147	29.64	9.87388
29.645	10.2973	29.645	9.89157
29.65	10.2843	29.65	9.90485
29.655	10.2745	29.655	9.91483
29.66	10.2673	29.66	9.92232
29.665	10.2619	29.665	9.92796
29.67	10.258	29.67	9.93219
29.675	10.255	29.675	9.93538
29.68	10.2529	29.68	9.93779
29.685	10.2513	29.685	9.93961
29.69	9.86324	29.69	10.3279
29.695	10.341	29.695	9.85037
29.7	9.93065	29.7	10.261
29.705	10.3917	29.705	9.80022
29.71	9.96875	29.71	10.2234
29.715	10.4204	29.715	9.77206
29.72	10.3773	29.72	9.8154
29.725	9.95809	29.725	10.2349
29.73	10.4126	29.73	9.78066
29.735	9.98463	29.735	10.2088
29.74	10.0456	29.74	10.1481
29.745	10.0914	29.745	10.1026
29.75	9.5003	29.75	10.6939
29.755	9.68031	29.755	10.5142
29.76	10.4408	29.76	9.75391
29.765	9.76254	29.765	10.4325
29.77	9.87714	29.77	10.3181
29.775	9.96313	29.775	10.2324
29.78	10.0277	29.78	10.1681
29.785	10.0761	29.785	10.1199
29.79	10.1125	29.79	10.0837
29.795	10.1399	29.795	10.0566
29.8	10.1604	29.8	10.0363
29.805	10.1759	29.805	10.0211
29.81	10.1876	29.81	10.0097
29.815	10.1964	29.815	10.0012
29.82	10.203	29.82	9.99481
29.825	10.208	29.825	9.99003
29.83	10.2119	29.83	9.98646
29.835	10.2148	29.835	9.9838
29.84	10.217	29.84	9.98182
29.845	10.6057	29.845	9.5934
29.85	10.1284	29.85	10.0709
29.855	10.1524	29.855	10.0472
29.86	10.5574	29.86	9.64247
29.865	10.4793	29.865	9.7208
29.87	8.7554	29.87	8.11417
29.875	9.1134	29.875	8.56009
29.88	9.38192	29.88	8.89452
29.885	9.58335	29.885	9.14534
29.89	9.73445	29.89	9.33345
29.895	9.8478	29.895	9.47452
29.9	9.93285	29.9	9.58032
29.905	9.99667	29.905	9.65967
29.91	10.0446	29.91	9.71917
29.915	10.0805	29.915	9.76379
29.92	10.1075	29.92	9.79726
29.925	10.1278	29.925	9.82235
29.93	10.143	29.93	9.84116
29.935	10.1545	29.935	9.85526
29.94	10.1631	29.94	9.86584
29.945	10.1696	29.945	9.87376
29.95	10.1745	29.95	9.8797
29.955	10.1782	29.955	9.88414
29.96	10.181	29.96	9.88748
29.965	10.1832	29.965	9.88997
29.97	10.1848	29.97	9.89183
29.975	10.1861	29.975	9.89322
29.98	10.1871	29.98	9.89426
29.985	10.1878	29.985	9.89504
29.99	10.1884	29.99	9.89561
29.995	10.1889	29.995	9.89604
30	-1.29462	30	-1.58756
30.005	-1.71357	30.005	-2.00661
30.01	-2.0321	30.01	-2.32525
30.015	-2.27531	30.015	-2.56858
30.02	-2.46203	30.02	-2.75542
30.025	-2.99333	30.025	-2.51296
30.03	-3.01425	30.03	-2.71733
30.035	-3.03426	30.035	-2.87495
30.04	-3.67906	30.04	-2.37204
30.045	-3.15675	30.045	-3.00942
30.05	-3.53815	30.05	-2.723
30.055	-3.05969	30.055	-3.28134
30.06	-3.08704	30.06	-3.32258
30.065	-3.4988	30.065	-2.97091
30.07	-3.66861	30.07	-2.85484
30.075	-1.89348	30.075	-1.34814
30.08	-2.21732	30.08	-1.87334
30.085	-2.46449	30.085	-2.27157
30.09	-0.988771	30.09	-0.909174
30.095	-1.53715	30.095	-1.54258
30.1	-2.96514	30.1	-1.00951
30.105	-1.36988	30.105	0.0462351
30.11	-1.82858	30.11	-0.817136
30.115	-0.75	30.115	0.434978
30.12	-1.35479	30.12	-0.522506
30.125	-0.147231	30.125	0.420509
30.13	-0.896674	30.13	-0.527373
30.135	-1.46298	30.135	-1.24253
30.14	-0.852009	30.14	0.507722
30.145	-1.42561	30.145	-0.457981
30.15	-0.194611	30.15	0.478909
30.155	-0.926441	30.155	-0.473527
30.16	1.61276	30.16	2.37726
30.165	2.11804	30.165	2.63339
30.17	0.216492	30.17	1.79592
30.175	2.74027	30.175	3.87118
30.18	2.99263	30.18	3.78713
30.185	2.56685	30.185	4.35998
30.19	3.26818	30.19	3.78983
30.195	3.42279	30.195	3.75453
30.2	1.25836	30.2	2.69861
30.205	5.63743	30.205	5.88861
30.21	4.62314	30.21	5.99719
30.215	8.21401	30.215	8.40975
30.22	7.23413	30.22	7.30986
30.225	5.88438	30.225	7.12104
30.23	10.8891	30.23	10.976
30.235	9.08036	30.235	9.54574
30.24	7.97594	30.24	8.24234
30.245	10.8761	30.245	10.2194
30.25	9.37847	30.25	8.79309
30.255	8.65301	30.255	7.34725
30.26	10.4432	30.26	10.6119
30.265	9.50527	30.265	8.75923
30.27	8.43087	30.27	7.76256
30.275	11.3538	30.275	9.96986
30.28	9.87332	30.28	8.71642
30.285	9.16097	30.285	7.40042
30.29	11.9736	30.29	9.75018
30.295	10.4106	30.295	8.60369
30.3	14.0071	30.3	12.9897
30.305	12.0045	30.305	11.0963
30.31	10.9006	30.31	9.3005
30.315	15.0853	30.315	12.956
30.32	12.9006	30.32	11.1382
30.325	11.2734	30.325	9.78612
30.33	15.4475	30.33	13.3927
30.335	13.6419	30.335	11.1513
30.34	11.9173	30.34	9.86353
30.345	12.6877	30.345	10.1876
30.35	12.9097	30.35	10.8386
30.355	11.4368	30.355	9.6875
30.36	14.0614	30.36	11.7796
30.365	14.0233	30.365	12.1057
30.37	16.6987	30.37	13.0295
30.375	14.4101	30.375	11.4374
30.38	12.7054	30.38	10.255
30.385	16.8217	30.385	13.9893
30.39	14.5863	30.39	12.231
30.395	14.587	30.395	12.5895
30.4	14.6139	30.4	12.8848
30.405	12.9952	30.405	11.4673
30.41	11.7931	30.41	10.4161
30.415	12.5689	30.415	11.3051
30.42	13.1772	30.42	11.9984
30.425	12.6201	30.425	10.254
30.43	13.2565	30.43	11.2464
30.435	12.0951	30.435	10.352
30.44	11.2361	30.44	9.69324
30.445	12.2694	30.445	10.8767
30.45	11.0187	30.45	10.5126
30.455	10.4748	30.455	9.86982
30.46	15.0753	30.46	14.3961
30.465	13.8238	30.465	12.612
30.47	13.0431	30.47	11.1406
30.475	16.6973	30.475	15.8144
30.48	14.4926	30.48	14.3846
30.485	13.2333	30.485	12.9428
30.49	15.8707	30.49	14.9661
30.495	13.9311	30.495	13.8227
30.5	12.8708	30.5	12.5958
30.505	14.2581	30.505	16.1798
30.51	13.7805	30.51	13.8075
30.515	11.7992	30.515	13.6767
30.52	13.235	30.52	14.0129
30.525	12.4322	30.525	12.8682
30.53	9.79049	30.53	10.7439
30.535	12.4116	30.535	14.5372
30.54	12.0906	30.54	13.0908
30.545	9.95592	30.545	10.5948
30.55	12.5755	30.55	14.4911
30.555	10.975	30.555	11.0698
30.56	9.80269	30.56	11.8032
30.565	12.7369	30.565	15.2272
30.57	11.5455	30.57	14.6094
30.575	11.1398	30.575	13.6841
30.58	10.602	30.58	13.2496
30.585	10.2066	30.585	12.9418
30.59	10.5434	30.59	12.1035
30.595	10.1806	30.595	12.1161
30.6	9.52962	30.6	12.5306
30.605	9.81814	30.605	12.0908
30.61	7.99527	30.61	10.4955
30.615	8.287	30.615	10.9681
30.62	9.13931	30.62	10.7153
30.625	7.88485	30.625	9.1147
30.63	9.26099	30.63	12.2561
30.635	8.23363	30.635	10.0653
30.64	8.88575	30.64	10.3276
30.645	9.00108	30.645	10.9245
30.65	7.81724	30.65	9.33804
30.655	8.59345	30.655	9.81227
30.66	8.80187	30.66	10.5681
30.665	7.68789	30.665	9.10086
30.67	8.51654	30.67	9.66456
30.675	7.48588	30.675	8.43517
30.68	6.32469	30.68	7.89879
30.685	8.12528	30.685	8.15328
30.69	8.47879	30.69	9.36762
30.695	7.47368	30.695	8.24437
30.7	6.71863	30.7	7.40069
30.705	7.81654	30.705	8.43209
30.71	8.65328	30.71	9.21893
30.715	7.62877	30.715	8.15696
30.72	8.52461	30.72	9.02468
30.725	7.54444	30.725	8.02339
30.73	7.19511	30.73	6.8843
30.735	8.21549	30.735	8.07606
30.74	7.32875	30.74	7.31782
30.745	6.66256	30.745	6.74799
30.75	7.82718	30.75	7.98484
30.755	7.04864	30.755	7.26044
30.76	6.46362	30.76	6.716
30.765	6.02374	30.765	6.30653
30.77	6.73263	30.77	8.28916
30.775	6.23558	30.775	7.50084
30.78	7.91404	30.78	8.18693
30.785	7.13905	30.785	7.43136
30.79	8.60907	30.79	8.14204
30.795	7.67777	30.795	7.40493
30.8	6.97824	30.8	6.85101
30.805	6.45253	30.805	6.43449
30.81	8.10954	30.81	7.39946
30.815	7.31849	30.815	6.8531
30.82	7.11112	30.82	6.05531
30.825	8.23808	30.825	7.50317
30.83	7.81833	30.83	6.55018
30.835	8.78603	30.835	7.88165
30.84	7.85992	30.84	7.22833
30.845	9.21667	30.845	8.01576
30.85	7.57502	30.85	7.96178
30.855	9.01841	30.855	8.57547
30.86	8.06723	30.86	7.76572
30.865	9.40523	30.865	8.43586
30.87	10.0404	30.87	9.33387
30.875	9.25195	30.875	7.96859
30.88	10.3301	30.88	8.604
30.885	9.49207	30.885	7.42365
30.89	10.5331	30.89	8.19777
30.895	9.28021	30.895	7.50842
30.9	8.33966	30.9	6.9905
30.905	9.06023	30.905	8.50507
30.91	9.8557	30.91	9.41321
30.915	9.1875	30.915	8.0556
30.92	9.96904	30.92	9.08379
30.925	8.90346	30.925	8.20318
30.93	10.1558	30.93	8.82032
30.935	9.44843	30.935	7.62637
30.94	8.53522	30.94	7.11193
30.945	9.90185	30.945	8.00372
30.95	8.89327	30.95	7.40273
30.955	9.80145	30.955	8.61656
30.96	10.8833	30.96	9.1537
30.965	9.6611	30.965	8.28674
30.97	10.4091	30.97	9.30115
30.975	10.7454	30.975	10.3142
30.98	9.58737	30.98	9.18101
30.985	10.7705	30.985	9.60881
30.99	11.2898	30.99	10.3253
30.995	10.0277	30.995	9.21109
31	9.0804	31	8.37473
31.005	10.0347	31.005	9.41215
31.01	9.09883	31.01	8.53865
31.015	10.0617	31.015	9.54824
31.02	9.13229	31.02	8.65388
31.025	8.43461	31.025	7.98245
31.03	7.9107	31.03	7.47821
31.035	9.18254	31.035	8.76477
31.04	8.4849	31.04	8.07816
31.045	7.96105	31.045	7.56256
31.05	9.23294	31.05	8.84062
31.055	8.53536	31.055	8.14764
31.06	8.01157	31.06	7.62729
31.065	9.28353	31.065	8.9018
31.07	8.58603	31.07	8.20619
31.075	8.44926	31.075	7.29693
31.08	7.96424	31.08	6.99625
31.085	9.26529	31.085	8.43553
31.09	8.58962	31.09	7.86351
31.095	8.08231	31.095	7.43392
31.1	7.70126	31.1	7.11114
31.105	8.69336	31.105	8.92081
31.11	8.16787	31.11	8.24475
31.115	7.7732	31.115	7.73713
31.12	9.14206	31.12	9.02125
31.125	8.51728	31.125	8.33291
31.13	8.04818	31.13	7.8161
31.135	7.07034	31.135	8.05343
31.14	8.86364	31.14	9.03448
31.145	7.69033	31.145	8.98573
31.15	9.48546	31.15	9.60382
31.155	8.79856	31.155	8.79785
31.16	8.2829	31.16	8.19287
31.165	7.89567	31.165	7.73863
31.17	8.88321	31.17	9.44979
31.175	8.35437	31.175	8.69991
31.18	7.95727	31.18	8.13702
31.185	9.32437	31.185	9.37976
31.19	8.69836	31.19	8.66045
31.195	8.2284	31.195	8.1205
31.2	9.15394	31.2	9.76742
31.205	8.57863	31.205	8.9694
31.21	8.14672	31.21	8.37043
31.215	9.48776	31.215	9.58616
31.22	8.84223	31.22	8.84663
31.225	8.35767	31.225	8.29155
31.23	7.99385	31.23	7.87482
31.235	7.72057	31.235	7.56184
31.24	7.5152	31.24	7.32667
31.245	9.02616	31.245	8.81527
31.25	8.50809	31.25	8.28041
31.255	8.11915	31.255	7.87885
31.26	9.49245	31.26	9.24268
31.265	8.87117	31.265	8.61426
31.27	8.40483	31.27	8.14255
31.275	8.0547	31.275	7.78838
31.28	7.79174	31.28	7.52237
31.285	7.59414	31.285	7.32246
31.29	7.05862	31.29	7.55909
31.295	8.70388	31.295	9.0197
31.3	7.66109	31.3	9.08937
31.305	7.88887	31.305	8.13104
31.31	7.67748	31.31	7.79378
31.315	7.51859	31.315	7.54047
31.32	9.06446	31.32	9.01551
31.325	8.57264	31.325	8.47055
31.33	8.20344	31.33	8.06147
31.335	7.9262	31.335	7.75432
31.34	7.71794	31.34	7.5236
31.345	9.22681	31.345	9.0156
31.35	8.70725	31.35	8.48338
31.355	8.31726	31.355	8.08388
31.36	8.02446	31.36	7.78392
31.365	7.80454	31.365	7.55862
31.37	9.30469	31.37	9.05471
31.375	8.77861	31.375	8.52558
31.38	8.38375	31.38	8.12841
31.385	8.08731	31.385	7.83022
31.39	7.86468	31.39	7.60626
31.395	7.69742	31.395	7.43798
31.4	7.95862	31.4	6.92451
31.405	9.43776	31.405	8.58636
31.41	8.89594	31.41	8.18156
31.415	8.4893	31.415	7.87766
31.42	8.18404	31.42	7.64945
31.425	9.62022	31.425	9.14339
31.43	9.0462	31.43	8.61268
31.435	8.61543	31.435	8.21437
31.44	8.2921	31.44	7.91536
31.445	8.04934	31.445	7.69083
31.45	9.91935	31.45	8.80061
31.455	8.66339	31.455	8.98914
31.46	8.96993	31.46	7.88153
31.465	8.57632	31.465	7.67384
31.47	8.28088	31.47	7.51781
31.475	7.43358	31.475	8.02602
31.48	9.08653	31.48	9.44904
31.485	8.67513	31.485	8.86518
31.49	8.36636	31.49	8.42705
31.495	8.52151	31.495	7.71127
31.5	8.25579	31.5	7.55607
31.505	8.05628	31.505	7.43943
31.51	7.90642	31.51	7.35171
31.515	7.79381	31.515	7.28569
31.52	7.70913	31.52	7.23594
31.525	9.3108	31.525	8.86378
31.53	8.86096	31.53	8.43356
31.535	8.52337	31.535	8.11067
31.54	8.26998	31.54	7.86829
31.545	8.07974	31.545	7.68629
31.55	7.93686	31.55	7.54958
31.555	8.21644	31.555	7.05987
31.56	8.04406	31.56	7.07425
31.565	7.52763	31.565	7.47176
31.57	9.57431	31.57	8.66626
31.575	9.07638	31.575	8.29291
31.58	8.70276	31.58	8.0127
31.585	8.42235	31.585	7.80234
31.59	8.21187	31.59	7.64438
31.595	8.05383	31.595	7.52571
31.6	7.93511	31.6	7.43651
31.605	7.84589	31.605	7.36942
31.61	7.7788	31.61	7.3189
31.615	7.72829	31.615	7.28081
31.62	9.35563	31.62	8.91744
31.625	8.92508	31.625	8.49385
31.63	8.98894	31.63	7.78903
31.635	8.65482	31.635	7.6421
31.64	8.01711	31.64	7.91867
31.645	7.92054	31.645	7.74405
31.65	8.23489	31.65	7.22597
31.655	8.08863	31.655	7.21909
31.66	7.97877	31.66	7.21376
31.665	9.5616	31.665	8.87497
31.67	9.0977	31.67	8.46983
31.675	8.74962	31.675	8.16582
31.68	8.48842	31.68	7.93765
31.685	8.29238	31.685	7.76636
31.69	8.1452	31.69	7.63774
31.695	8.03468	31.695	7.54112
31.7	7.95164	31.7	7.46849
31.705	7.88922	31.705	7.41386
31.71	7.84226	31.71	7.37272
31.715	7.80689	31.715	7.34172
31.72	7.78023	31.72	7.3183
31.725	7.76008	31.725	7.30058
31.73	7.74483	31.73	7.28713
31.735	7.73325	31.735	7.27689
31.74	7.72442	31.74	7.26904
31.745	7.71766	31.745	7.263
31.75	7.71244	31.75	7.25831
31.755	9.37378	31.755	8.92003
31.76	8.96876	31.76	8.51529
31.765	8.66488	31.765	8.21159
31.77	8.43684	31.77	7.98368
31.775	8.26569	31.775	7.81261
31.78	8.52415	31.78	7.29722
31.785	8.336	31.785	7.2924
31.79	8.19477	31.79	7.28864
31.795	7.70177	31.795	7.67264
31.8	7.71376	31.8	7.57862
31.805	7.72263	31.805	7.50798
31.81	7.72916	31.81	7.45485
31.815	7.73394	31.815	7.41487
31.82	7.73739	31.82	7.38474
31.825	7.35291	31.825	7.74895
31.83	7.83324	31.83	7.25316
31.835	7.42455	31.835	7.64998
31.84	7.49977	31.84	7.5656
31.845	7.94301	31.845	7.11522
31.85	7.89345	31.85	7.15917
31.855	7.85615	31.855	7.19199
31.86	7.82806	31.86	7.21646
31.865	7.80686	31.865	7.23468
31.87	7.79084	31.87	7.2482
31.875	7.7787	31.875	7.2582
31.88	7.76947	31.88	7.26556
31.885	9.04087	31.885	9.32329
31.89	9.11224	31.89	8.44675
31.895	8.78379	31.895	8.1711
31.9	8.15041	31.9	8.35119
31.905	8.05713	31.905	8.10426
31.91	7.98706	31.91	7.91895
31.915	7.93441	31.915	7.77985
31.92	7.89481	31.92	7.6754
31.925	7.86501	31.925	7.59694
31.93	7.84255	31.93	7.53798
31.935	7.82561	31.935	7.49363
31.94	7.81279	31.94	7.46026
31.945	7.80307	31.945	7.4351
31.95	7.79568	31.95	7.41612
31.955	8.41551	31.955	6.77627
31.96	7.63153	31.96	7.54503
31.965	7.6667	31.965	7.4982
31.97	8.31846	31.97	6.83747
31.975	7.55843	31.975	7.59056
31.98	7.61157	31.98	7.53198
31.985	8.27679	31.985	6.86245
31.99	7.52686	31.99	7.60893
31.995	7.58758	31.995	7.5454
32	8.25849	32	6.87215
32.005	8.1383	32.005	6.99036
32.01	8.04805	32.01	7.0789
32.015	7.59331	32.015	7.53213
32.02	7.63402	32.02	7.49007
32.025	7.66444	32.025	7.4584
32.03	8.07411	32.03	7.04757
32.035	7.99938	32.035	7.1212
32.04	7.94324	32.04	7.1763
32.045	7.90102	32.045	7.21751
32.05	7.48231	32.05	7.63523
32.055	7.55004	32.055	7.56654
32.06	7.60073	32.06	7.5149
32.065	7.63864	32.065	7.47605
32.07	7.66697	32.07	7.44679
32.075	7.68812	32.075	7.42472
32.08	7.70387	32.08	7.40805
32.085	7.71558	32.085	7.39543
32.09	7.72426	32.09	7.38584
32.095	7.73067	32.095	7.37852
32.1	9.40076	32.1	9.03831
32.105	9.00236	32.105	8.63216
32.11	8.70347	32.11	8.32744
32.115	8.47922	32.115	8.0988
32.12	8.31094	32.12	7.92722
32.125	8.18465	32.125	7.79843
32.13	8.08985	32.13	7.70173
32.135	8.01866	32.135	7.62911
32.14	7.96518	32.14	7.57454
32.145	7.92499	32.145	7.53351
32.15	7.89476	32.15	7.50264
32.155	7.87201	32.155	7.47938
32.16	7.85485	32.16	7.46183
32.165	7.8419	32.165	7.44857
32.17	7.83211	32.17	7.43852
32.175	7.43773	32.175	7.81783
32.18	7.52372	32.18	7.72034
32.185	7.58813	32.185	7.64712
32.19	8.26184	32.19	6.96663
32.195	7.51828	32.195	7.70491
32.2	8.20928	32.2	7.00976
32.205	8.10417	32.205	7.11157
32.21	7.39977	32.21	7.8133
32.215	8.12014	32.215	7.09075
32.22	8.03707	32.22	7.172
32.225	7.97467	32.225	7.23283
32.23	7.92779	32.23	7.27836
32.235	7.89255	32.235	7.3124
32.24	7.86604	32.24	7.33782
32.245	7.84606	32.245	7.35679
32.25	7.831	32.25	7.37091
32.255	7.81962	32.255	7.3814
32.26	7.811	32.26	7.38916
32.265	7.80445	32.265	7.39488
32.27	7.41251	32.27	7.78601
32.275	7.88728	32.275	7.31045
32.28	9.13986	32.28	9.38788
32.285	8.8102	32.285	8.91311
32.29	8.94984	32.29	8.17
32.295	8.67263	32.295	7.99445
32.3	8.46467	32.3	7.86271
32.305	8.30863	32.305	7.76381
32.31	8.19153	32.31	7.68956
32.315	8.10365	32.315	7.63378
32.32	8.03767	32.32	7.59187
32.325	7.98812	32.325	7.56035
32.33	7.95089	32.33	7.53662
32.335	7.9229	32.335	7.51874
32.34	8.14038	32.34	7.26672
32.345	8.06202	32.345	7.31902
32.35	7.37771	32.35	7.98364
32.355	8.11316	32.355	7.23327
32.36	8.04141	32.36	7.29368
32.365	7.60059	32.365	7.72585
32.37	8.03872	32.37	7.28108
32.375	7.98539	32.375	7.32928
32.38	7.94533	32.38	7.36535
32.385	7.91522	32.385	7.39231
32.39	7.89257	32.39	7.41245
32.395	7.87552	32.395	7.42747
